"success","timeout","failed_images","failed_audio","failed_video","trial_type","trial_index","time_elapsed","internal_node_id","rt","stimulus","response","value","item_width_mm","item_height_mm","item_width_px","px2mm","view_dist_mm","item_width_deg","px2deg","scale_factor","win_width_deg","win_height_deg","view_history","response_type","key_press","avg_frame_time","center_x","center_y","image","word","target","valence","matchness","correct_response","correct","exp_condition"
"true","false","[]","[]","[]","preload","0","8","0.0-0.0","","","","","","","","","","","","","","","","","","","","","","","","","","","",""
"","","","","","html-keyboard-response","1","16380","0.0-1.0","16370","
     <p>您好，欢迎参加本次实验。</p>
     <p>为充分保障您的权利，请确保您已经知晓并同意《参与实验同意书》以及《数据公开知情同意书》。</p>
     <p>如果您未见过上述内容，请咨询实验员。</p>
     <p>如果您选择继续实验，则表示您已经清楚两份知情同意书的内容并同意。</p>
     <p> <div style = ""color: green""><按任意键至下页></div> </p>
     ","arrowright","","","","","","","","","","","","","","","","","","","","","","","","",""
"","","","","","html-keyboard-response","2","17164","0.0-2.0-0.0","782","
      <p>本实验首先需要您填写一些基本个人信息。</p>
      <p> <div style = ""color: green""><按任意键至下页></div></p>
      ","arrowright","","","","","","","","","","","","","","","","","","","","","","","","",""
"","","","","","call-function","3","17166","0.0-2.0-1.0","","","","","","","","","","","","","","","","","","","","","","","","","","","",""
"","","","","","survey-html-form","4","21162","0.0-2.0-2.0","3991","","{""Q0"":""1010""}","","","","","","","","","","","","","","","","","","","","","","","","",""
"","","","","","html-button-response","5","23056","0.0-2.0-3.0","1892","<p style = 'color : white'>您的性别</p>","1","","","","","","","","","","","","","","","","","","","","","","","","",""
"","","","","","survey-html-form","6","30702","0.0-2.0-4.0","7645","","{""Q0"":""2002""}","","","","","","","","","","","","","","","","","","","","","","","","",""
"","","","","","survey-html-form","7","33390","0.0-2.0-5.0","2687","","{""Q0"":""5""}","","","","","","","","","","","","","","","","","","","","","","","","",""
"","","","","","virtual-chinrest","8","137582","0.0-3.0","104188","","","","85.6","53.98","473.9026631213744","5.537178484891849","516.28","9.478053262427489","50","0.8018524257642241","25.6","16","","","","","","","","","","","","","",""
"true","","","","","fullscreen","9","141627","0.0-4.0","","","","","","","","","","","","","","","","","","","","","","","","","","","",""
"","","","","","instructions","10","246605","0.0-5.0","104974","","","","","","","","","","","","","","[{""page_index"":0,""viewing_time"":20147},{""page_index"":1,""viewing_time"":40682},{""page_index"":2,""viewing_time"":18925},{""page_index"":3,""viewing_time"":4576},{""page_index"":2,""viewing_time"":19069},{""page_index"":3,""viewing_time"":1576}]","","","","","","","","","","","","",""
"","","","","","html-keyboard-response","11","250260","0.0-6.0","null","<count-down title=""""></count-down>","null","","","","","","","","","","","","","","","","","","","","","","","","",""
"","","","","","psychophysics","12","252969","0.0-7.0-0.0-0.0","null","","null","","","","","","","","","","","","","key","null","16.668633540372635","710.8333521639864","440.27778944115613","./1_3_Stimuli/S_ambi40.png","自我","Word","自我","Match","f","false","Practice"
"","","","","","html-keyboard-response","13","253285","0.0-7.0-0.0-1.0","null","<span class='add_' style='color:yellow; font-size: 70px;'> 太慢! </span>","null","","","","","","","","","","","","","","","","","","","","","","","","","feedback"
"","","","","","psychophysics","14","254874","0.0-7.0-0.0-0.1","423","","f","","","","","","","","","","","","","key","f","16.6682978723405","710.8333521639864","440.27778944115613","./1_3_Stimuli/S_ambi40.png","自我","Image","自我","Match","f","true","Practice"
"","","","","","html-keyboard-response","15","255180","0.0-7.0-0.0-1.1","null","<span style='color:GreenYellow; font-size: 70px;'>正确! </span>","null","","","","","","","","","","","","","","","","","","","","","","","","","feedback"
"","","","","","psychophysics","16","257324","0.0-7.0-0.0-0.2","986","","j","","","","","","","","","","","","","key","j","16.667968503937196","710.8333521639864","440.27778944115613","./1_3_Stimuli/C_ambi40.png","朋友","Word","朋友","Match","f","false","Practice"
"","","","","","html-keyboard-response","17","257638","0.0-7.0-0.0-1.2","null","<span style='color:red; font-size: 70px;'>错误! </span>","null","","","","","","","","","","","","","","","","","","","","","","","","","feedback"
"","","","","","psychophysics","18","259538","0.0-7.0-0.0-0.3","748","","f","","","","","","","","","","","","","key","f","16.668080357142962","710.8333521639864","440.27778944115613","./1_3_Stimuli/C_ambi40.png","朋友","Image","朋友","Match","f","true","Practice"
"","","","","","html-keyboard-response","19","259843","0.0-7.0-0.0-1.3","null","<span style='color:GreenYellow; font-size: 70px;'>正确! </span>","null","","","","","","","","","","","","","","","","","","","","","","","","","feedback"
"","","","","","psychophysics","20","261759","0.0-7.0-0.0-0.4","764","","j","","","","","","","","","","","","","key","j","16.668681415929345","710.8333521639864","440.27778944115613","./1_3_Stimuli/C_ambi40.png","自我","Word","朋友","Mismatch","j","true","Practice"
"","","","","","html-keyboard-response","21","262065","0.0-7.0-0.0-1.4","null","<span style='color:GreenYellow; font-size: 70px;'>正确! </span>","null","","","","","","","","","","","","","","","","","","","","","","","","","feedback"
"","","","","","psychophysics","22","263844","0.0-7.0-0.0-0.5","626","","f","","","","","","","","","","","","","key","f","16.66895238095229","710.8333521639864","440.27778944115613","./1_3_Stimuli/T_ambi40.png","他人","Image","他人","Match","f","true","Practice"
"","","","","","html-keyboard-response","23","264153","0.0-7.0-0.0-1.5","null","<span style='color:GreenYellow; font-size: 70px;'>正确! </span>","null","","","","","","","","","","","","","","","","","","","","","","","","","feedback"
"","","","","","psychophysics","24","266015","0.0-7.0-0.0-0.6","702","","j","","","","","","","","","","","","","key","j","16.66806306306279","710.8333521639864","440.27778944115613","./1_3_Stimuli/T_ambi40.png","朋友","Image","他人","Mismatch","j","true","Practice"
"","","","","","html-keyboard-response","25","266331","0.0-7.0-0.0-1.6","null","<span style='color:GreenYellow; font-size: 70px;'>正确! </span>","null","","","","","","","","","","","","","","","","","","","","","","","","","feedback"
"","","","","","psychophysics","26","268417","0.0-7.0-0.0-0.7","934","","j","","","","","","","","","","","","","key","j","16.668459677419555","710.8333521639864","440.27778944115613","./1_3_Stimuli/C_ambi40.png","他人","Image","朋友","Mismatch","j","true","Practice"
"","","","","","html-keyboard-response","27","268733","0.0-7.0-0.0-1.7","null","<span style='color:GreenYellow; font-size: 70px;'>正确! </span>","null","","","","","","","","","","","","","","","","","","","","","","","","","feedback"
"","","","","","psychophysics","28","270567","0.0-7.0-0.0-0.8","682","","f","","","","","","","","","","","","","key","f","16.669403669725007","710.8333521639864","440.27778944115613","./1_3_Stimuli/S_ambi40.png","自我","Word","自我","Match","f","true","Practice"
"","","","","","html-keyboard-response","29","270876","0.0-7.0-0.0-1.8","null","<span style='color:GreenYellow; font-size: 70px;'>正确! </span>","null","","","","","","","","","","","","","","","","","","","","","","","","","feedback"
"","","","","","psychophysics","30","272577","0.0-7.0-0.0-0.9","550","","j","","","","","","","","","","","","","key","j","16.667821782178333","710.8333521639864","440.27778944115613","./1_3_Stimuli/C_ambi40.png","朋友","Image","朋友","Match","f","false","Practice"
"","","","","","html-keyboard-response","31","272880","0.0-7.0-0.0-1.9","null","<span style='color:red; font-size: 70px;'>错误! </span>","null","","","","","","","","","","","","","","","","","","","","","","","","","feedback"
"","","","","","psychophysics","32","274898","0.0-7.0-0.0-0.10","865","","f","","","","","","","","","","","","","key","f","16.667966386554724","710.8333521639864","440.27778944115613","./1_3_Stimuli/S_ambi40.png","自我","Image","自我","Match","f","true","Practice"
"","","","","","html-keyboard-response","33","275204","0.0-7.0-0.0-1.10","null","<span style='color:GreenYellow; font-size: 70px;'>正确! </span>","null","","","","","","","","","","","","","","","","","","","","","","","","","feedback"
"","","","","","psychophysics","34","277435","0.0-7.0-0.0-0.11","1079","","j","","","","","","","","","","","","","key","j","16.667270676691533","710.8333521639864","440.27778944115613","./1_3_Stimuli/S_ambi40.png","朋友","Image","自我","Mismatch","j","true","Practice"
"","","","","","html-keyboard-response","35","277738","0.0-7.0-0.0-1.11","null","<span style='color:GreenYellow; font-size: 70px;'>正确! </span>","null","","","","","","","","","","","","","","","","","","","","","","","","","feedback"
"","","","","","psychophysics","36","279717","0.0-7.0-0.0-0.12","824","","f","","","","","","","","","","","","","key","f","16.668161016949096","710.8333521639864","440.27778944115613","./1_3_Stimuli/T_ambi40.png","他人","Image","他人","Match","f","true","Practice"
"","","","","","html-keyboard-response","37","280031","0.0-7.0-0.0-1.12","null","<span style='color:GreenYellow; font-size: 70px;'>正确! </span>","null","","","","","","","","","","","","","","","","","","","","","","","","","feedback"
"","","","","","psychophysics","38","282149","0.0-7.0-0.0-0.13","965","","j","","","","","","","","","","","","","key","j","16.668047619047613","710.8333521639864","440.27778944115613","./1_3_Stimuli/T_ambi40.png","自我","Word","他人","Mismatch","j","true","Practice"
"","","","","","html-keyboard-response","39","282463","0.0-7.0-0.0-1.13","null","<span style='color:GreenYellow; font-size: 70px;'>正确! </span>","null","","","","","","","","","","","","","","","","","","","","","","","","","feedback"
"","","","","","psychophysics","40","284969","0.0-7.0-0.0-0.14","1351","","f","","","","","","","","","","","","","key","f","16.666006711409302","710.8333521639864","440.27778944115613","./1_3_Stimuli/T_ambi40.png","他人","Word","他人","Match","f","true","Practice"
"","","","","","html-keyboard-response","41","285276","0.0-7.0-0.0-1.14","null","<span style='color:GreenYellow; font-size: 70px;'>正确! </span>","null","","","","","","","","","","","","","","","","","","","","","","","","","feedback"
"","","","","","psychophysics","42","287172","0.0-7.0-0.0-0.15","738","","j","","","","","","","","","","","","","key","j","16.668026785713923","710.8333521639864","440.27778944115613","./1_3_Stimuli/T_ambi40.png","自我","Image","他人","Mismatch","j","true","Practice"
"","","","","","html-keyboard-response","43","287487","0.0-7.0-0.0-1.15","null","<span style='color:GreenYellow; font-size: 70px;'>正确! </span>","null","","","","","","","","","","","","","","","","","","","","","","","","","feedback"
"","","","","","psychophysics","44","289349","0.0-7.0-0.0-0.16","709","","j","","","","","","","","","","","","","key","j","16.657763636363565","710.8333521639864","440.27778944115613","./1_3_Stimuli/C_ambi40.png","他人","Word","朋友","Mismatch","j","true","Practice"
"","","","","","html-keyboard-response","45","289660","0.0-7.0-0.0-1.16","null","<span style='color:GreenYellow; font-size: 70px;'>正确! </span>","null","","","","","","","","","","","","","","","","","","","","","","","","","feedback"
"","","","","","psychophysics","46","291660","0.0-7.0-0.0-0.17","847","","j","","","","","","","","","","","","","key","j","16.668398305084615","710.8333521639864","440.27778944115613","./1_3_Stimuli/C_ambi40.png","自我","Image","朋友","Mismatch","j","true","Practice"
"","","","","","html-keyboard-response","47","291970","0.0-7.0-0.0-1.17","null","<span style='color:GreenYellow; font-size: 70px;'>正确! </span>","null","","","","","","","","","","","","","","","","","","","","","","","","","feedback"
"","","","","","psychophysics","48","293840","0.0-7.0-0.0-0.18","718","","f","","","","","","","","","","","","","key","f","16.66829464285703","710.8333521639864","440.27778944115613","./1_3_Stimuli/T_ambi40.png","他人","Word","他人","Match","f","true","Practice"
"","","","","","html-keyboard-response","49","294155","0.0-7.0-0.0-1.18","null","<span style='color:GreenYellow; font-size: 70px;'>正确! </span>","null","","","","","","","","","","","","","","","","","","","","","","","","","feedback"
"","","","","","psychophysics","50","296319","0.0-7.0-0.0-0.19","1008","","j","","","","","","","","","","","","","key","j","16.66821875000005","710.8333521639864","440.27778944115613","./1_3_Stimuli/S_ambi40.png","他人","Image","自我","Mismatch","j","true","Practice"
"","","","","","html-keyboard-response","51","296626","0.0-7.0-0.0-1.19","null","<span style='color:GreenYellow; font-size: 70px;'>正确! </span>","null","","","","","","","","","","","","","","","","","","","","","","","","","feedback"
"","","","","","psychophysics","52","298801","0.0-7.0-0.0-0.20","1020","","j","","","","","","","","","","","","","key","j","16.666488372092676","710.8333521639864","440.27778944115613","./1_3_Stimuli/T_ambi40.png","朋友","Word","他人","Mismatch","j","true","Practice"
"","","","","","html-keyboard-response","53","299108","0.0-7.0-0.0-1.20","null","<span style='color:GreenYellow; font-size: 70px;'>正确! </span>","null","","","","","","","","","","","","","","","","","","","","","","","","","feedback"
"","","","","","psychophysics","54","301086","0.0-7.0-0.0-0.21","826","","j","","","","","","","","","","","","","key","j","16.668788135593356","710.8333521639864","440.27778944115613","./1_3_Stimuli/S_ambi40.png","他人","Word","自我","Mismatch","j","true","Practice"
"","","","","","html-keyboard-response","55","301391","0.0-7.0-0.0-1.21","null","<span style='color:GreenYellow; font-size: 70px;'>正确! </span>","null","","","","","","","","","","","","","","","","","","","","","","","","","feedback"
"","","","","","psychophysics","56","303331","0.0-7.0-0.0-0.22","788","","f","","","","","","","","","","","","","key","f","16.668365217391504","710.8333521639864","440.27778944115613","./1_3_Stimuli/C_ambi40.png","朋友","Word","朋友","Match","f","true","Practice"
"","","","","","html-keyboard-response","57","303637","0.0-7.0-0.0-1.22","null","<span style='color:GreenYellow; font-size: 70px;'>正确! </span>","null","","","","","","","","","","","","","","","","","","","","","","","","","feedback"
"","","","","","psychophysics","58","305417","0.0-7.0-0.0-0.23","623","","j","","","","","","","","","","","","","key","j","16.66850943396193","710.8333521639864","440.27778944115613","./1_3_Stimuli/S_ambi40.png","朋友","Word","自我","Mismatch","j","true","Practice"
"","","","","","html-keyboard-response","59","305727","0.0-7.0-0.0-1.23","null","<span style='color:GreenYellow; font-size: 70px;'>正确! </span>","null","","","","","","","","","","","","","","","","","","","","","","","","","feedback"
"","","","","","html-keyboard-response","60","348620","0.0-8.0","42886","<style>.context{color:white; font-size: 35px; line-height:40px}</style>                          <div><p class='context'>您正确回答了88% 的试次。</p><p class='context'>您的平均反应时为821毫秒。</p><p class='context'>恭喜您完成练习。现在请休息3~5分钟。</p><p class='context'>之后，按任意键进入正式实验。需要注意的是，正式实验将不再提供反应是否正确的反馈。</p><p class='footer' style='font-size: 35px; line-height:40px;'>请在进入正式实验实验之前将您的<span style='color: lightgreen;'>食指</span>放在电脑键盘的相应键位上进行按键。</p>","j","","","","","","","","","","","","","","","","","","","","","","","","",""
"","","","","","psychophysics","61","350801","0.0-9.0-0.0-0.0","1010","","j","","","","","","","","","","","","","key","j","16.66840310077555","710.8333521639864","440.27778944115613","./1_3_Stimuli/S_ambi40.png","朋友","Image","自我","Mismatch","j","true","Formal"
"","","","","","psychophysics","62","352778","0.0-9.0-0.0-0.1","819","","f","","","","","","","","","","","","","key","f","16.66866101694917","710.8333521639864","440.27778944115613","./1_3_Stimuli/T_ambi40.png","他人","Word","他人","Match","f","true","Formal"
"","","","","","psychophysics","63","354649","0.0-9.0-0.0-0.2","716","","j","","","","","","","","","","","","","key","j","16.66878378378366","710.8333521639864","440.27778944115613","./1_3_Stimuli/C_ambi40.png","朋友","Image","朋友","Match","f","false","Formal"
"","","","","","psychophysics","64","356635","0.0-9.0-0.0-0.3","825","","j","","","","","","","","","","","","","key","j","16.66841025641049","710.8333521639864","440.27778944115613","./1_3_Stimuli/T_ambi40.png","自我","Word","他人","Mismatch","j","true","Formal"
"","","","","","psychophysics","65","359054","0.0-9.0-0.0-0.4","1265","","f","","","","","","","","","","","","","key","f","16.667909722222248","710.8333521639864","440.27778944115613","./1_3_Stimuli/T_ambi40.png","他人","Word","他人","Match","f","true","Formal"
"","","","","","psychophysics","66","361029","0.0-9.0-0.0-0.5","820","","f","","","","","","","","","","","","","key","f","16.667957627118795","710.8333521639864","440.27778944115613","./1_3_Stimuli/C_ambi40.png","朋友","Image","朋友","Match","f","true","Formal"
"","","","","","psychophysics","67","363230","0.0-9.0-0.0-0.6","1039","","f","","","","","","","","","","","","","key","f","16.668381679389014","710.8333521639864","440.27778944115613","./1_3_Stimuli/S_ambi40.png","自我","Image","自我","Match","f","true","Formal"
"","","","","","psychophysics","68","365626","0.0-9.0-0.0-0.7","1243","","f","","","","","","","","","","","","","key","f","16.667626760563483","710.8333521639864","440.27778944115613","./1_3_Stimuli/T_ambi40.png","他人","Image","他人","Match","f","true","Formal"
"","","","","","psychophysics","69","367501","0.0-9.0-0.0-0.8","723","","j","","","","","","","","","","","","","key","j","16.668576576576573","710.8333521639864","440.27778944115613","./1_3_Stimuli/C_ambi40.png","自我","Word","朋友","Mismatch","j","true","Formal"
"","","","","","psychophysics","70","369667","0.0-9.0-0.0-0.9","1006","","j","","","","","","","","","","","","","key","j","16.66920155038752","710.8333521639864","440.27778944115613","./1_3_Stimuli/C_ambi40.png","他人","Image","朋友","Mismatch","j","true","Formal"
"","","","","","psychophysics","71","371724","0.0-9.0-0.0-0.10","897","","j","","","","","","","","","","","","","key","j","16.668286885246044","710.8333521639864","440.27778944115613","./1_3_Stimuli/T_ambi40.png","朋友","Word","他人","Mismatch","j","true","Formal"
"","","","","","psychophysics","72","373821","0.0-9.0-0.0-0.11","943","","f","","","","","","","","","","","","","key","f","16.667709677419605","710.8333521639864","440.27778944115613","./1_3_Stimuli/S_ambi40.png","自我","Image","自我","Match","f","true","Formal"
"","","","","","psychophysics","73","375797","0.0-9.0-0.0-0.12","822","","f","","","","","","","","","","","","","key","f","16.668796610169537","710.8333521639864","440.27778944115613","./1_3_Stimuli/C_ambi40.png","朋友","Word","朋友","Match","f","true","Formal"
"","","","","","psychophysics","74","377721","0.0-9.0-0.0-0.13","758","","j","","","","","","","","","","","","","key","j","16.667885964912497","710.8333521639864","440.27778944115613","./1_3_Stimuli/S_ambi40.png","朋友","Word","自我","Mismatch","j","true","Formal"
"","","","","","psychophysics","75","379947","0.0-9.0-0.0-0.14","1068","","j","","","","","","","","","","","","","key","j","16.668533834586746","710.8333521639864","440.27778944115613","./1_3_Stimuli/S_ambi40.png","他人","Image","自我","Mismatch","j","true","Formal"
"","","","","","psychophysics","76","381987","0.0-9.0-0.0-0.15","889","","j","","","","","","","","","","","","","key","j","16.668223140495712","710.8333521639864","440.27778944115613","./1_3_Stimuli/T_ambi40.png","自我","Image","他人","Mismatch","j","true","Formal"
"","","","","","psychophysics","77","384177","0.0-9.0-0.0-0.16","1035","","j","","","","","","","","","","","","","key","j","16.66877692307686","710.8333521639864","440.27778944115613","./1_3_Stimuli/C_ambi40.png","自我","Image","朋友","Mismatch","j","true","Formal"
"","","","","","psychophysics","78","386233","0.0-9.0-0.0-0.17","904","","j","","","","","","","","","","","","","key","j","16.667745901639556","710.8333521639864","440.27778944115613","./1_3_Stimuli/T_ambi40.png","朋友","Image","他人","Mismatch","j","true","Formal"
"","","","","","psychophysics","79","388288","0.0-9.0-0.0-0.18","895","","j","","","","","","","","","","","","","key","j","16.668155737705032","710.8333521639864","440.27778944115613","./1_3_Stimuli/S_ambi40.png","他人","Word","自我","Mismatch","j","true","Formal"
"","","","","","psychophysics","80","390374","0.0-9.0-0.0-0.19","931","","f","","","","","","","","","","","","","key","f","16.66819354838686","710.8333521639864","440.27778944115613","./1_3_Stimuli/T_ambi40.png","他人","Image","他人","Match","f","true","Formal"
"","","","","","psychophysics","81","392167","0.0-9.0-0.0-0.20","638","","f","","","","","","","","","","","","","key","f","16.669622641509257","710.8333521639864","440.27778944115613","./1_3_Stimuli/S_ambi40.png","自我","Word","自我","Match","f","true","Formal"
"","","","","","psychophysics","82","394012","0.0-9.0-0.0-0.21","685","","j","","","","","","","","","","","","","key","j","16.66833944954117","710.8333521639864","440.27778944115613","./1_3_Stimuli/S_ambi40.png","自我","Word","自我","Match","f","false","Formal"
"","","","","","psychophysics","83","395890","0.0-9.0-0.0-0.22","727","","f","","","","","","","","","","","","","key","f","16.668693693693484","710.8333521639864","440.27778944115613","./1_3_Stimuli/C_ambi40.png","朋友","Word","朋友","Match","f","true","Formal"
"","","","","","psychophysics","84","397841","0.0-9.0-0.0-0.23","798","","j","","","","","","","","","","","","","key","j","16.66818103448243","710.8333521639864","440.27778944115613","./1_3_Stimuli/C_ambi40.png","他人","Word","朋友","Mismatch","j","true","Formal"
"","","","","","psychophysics","85","400197","0.0-9.0-0.0-0.24","1201","","j","","","","","","","","","","","","","key","j","16.66830935251812","710.8333521639864","440.27778944115613","./1_3_Stimuli/S_ambi40.png","他人","Word","自我","Mismatch","j","true","Formal"
"","","","","","psychophysics","86","401981","0.0-9.0-0.0-0.25","631","","f","","","","","","","","","","","","","key","f","16.667490566037333","710.8333521639864","440.27778944115613","./1_3_Stimuli/C_ambi40.png","朋友","Word","朋友","Match","f","true","Formal"
"","","","","","psychophysics","87","404690","0.0-9.0-0.0-0.26","null","","null","","","","","","","","","","","","","key","null","16.66799378881964","710.8333521639864","440.27778944115613","./1_3_Stimuli/S_ambi40.png","他人","Image","自我","Mismatch","j","false","Formal"
"","","","","","psychophysics","88","406413","0.0-9.0-0.0-0.27","569","","f","","","","","","","","","","","","","key","f","16.668470588235376","710.8333521639864","440.27778944115613","./1_3_Stimuli/C_ambi40.png","朋友","Word","朋友","Match","f","true","Formal"
"","","","","","psychophysics","89","408593","0.0-9.0-0.0-0.28","1028","","j","","","","","","","","","","","","","key","j","16.66827906976777","710.8333521639864","440.27778944115613","./1_3_Stimuli/C_ambi40.png","自我","Word","朋友","Mismatch","j","true","Formal"
"","","","","","psychophysics","90","410721","0.0-9.0-0.0-0.29","973","","j","","","","","","","","","","","","","key","j","16.668519685038927","710.8333521639864","440.27778944115613","./1_3_Stimuli/C_ambi40.png","他人","Word","朋友","Mismatch","j","true","Formal"
"","","","","","psychophysics","91","412553","0.0-9.0-0.0-0.30","671","","j","","","","","","","","","","","","","key","j","16.668137614679342","710.8333521639864","440.27778944115613","./1_3_Stimuli/S_ambi40.png","朋友","Image","自我","Mismatch","j","true","Formal"
"","","","","","psychophysics","92","414885","0.0-9.0-0.0-0.31","1169","","f","","","","","","","","","","","","","key","f","16.668640287769723","710.8333521639864","440.27778944115613","./1_3_Stimuli/T_ambi40.png","他人","Image","他人","Match","f","true","Formal"
"","","","","","psychophysics","93","416668","0.0-9.0-0.0-0.32","620","","f","","","","","","","","","","","","","key","f","16.66845283018895","710.8333521639864","440.27778944115613","./1_3_Stimuli/T_ambi40.png","他人","Word","他人","Match","f","true","Formal"
"","","","","","psychophysics","94","418694","0.0-9.0-0.0-0.33","866","","j","","","","","","","","","","","","","key","j","16.668241666666777","710.8333521639864","440.27778944115613","./1_3_Stimuli/C_ambi40.png","自我","Image","朋友","Mismatch","j","true","Formal"
"","","","","","psychophysics","95","420643","0.0-9.0-0.0-0.34","794","","f","","","","","","","","","","","","","key","f","16.66808695652188","710.8333521639864","440.27778944115613","./1_3_Stimuli/S_ambi40.png","自我","Word","自我","Match","f","true","Formal"
"","","","","","psychophysics","96","422371","0.0-9.0-0.0-0.35","572","","f","","","","","","","","","","","","","key","f","16.66883495145588","710.8333521639864","440.27778944115613","./1_3_Stimuli/T_ambi40.png","他人","Image","他人","Match","f","true","Formal"
"","","","","","psychophysics","97","424849","0.0-9.0-0.0-0.36","1316","","f","","","","","","","","","","","","","key","f","16.66885034013603","710.8333521639864","440.27778944115613","./1_3_Stimuli/T_ambi40.png","他人","Word","他人","Match","f","true","Formal"
"","","","","","psychophysics","98","426633","0.0-9.0-0.0-0.37","632","","j","","","","","","","","","","","","","key","j","16.66879047619046","710.8333521639864","440.27778944115613","./1_3_Stimuli/S_ambi40.png","朋友","Word","自我","Mismatch","j","true","Formal"
"","","","","","psychophysics","99","428686","0.0-9.0-0.0-0.38","898","","j","","","","","","","","","","","","","key","j","16.66918852459019","710.8333521639864","440.27778944115613","./1_3_Stimuli/C_ambi40.png","他人","Image","朋友","Mismatch","j","true","Formal"
"","","","","","psychophysics","100","430724","0.0-9.0-0.0-0.39","873","","j","","","","","","","","","","","","","key","j","16.66649586776866","710.8333521639864","440.27778944115613","./1_3_Stimuli/T_ambi40.png","朋友","Image","他人","Mismatch","j","true","Formal"
"","","","","","psychophysics","101","432660","0.0-9.0-0.0-0.40","776","","j","","","","","","","","","","","","","key","j","16.66885964912281","710.8333521639864","440.27778944115613","./1_3_Stimuli/T_ambi40.png","自我","Image","他人","Mismatch","j","true","Formal"
"","","","","","psychophysics","102","434588","0.0-9.0-0.0-0.41","770","","f","","","","","","","","","","","","","key","f","16.66746086956498","710.8333521639864","440.27778944115613","./1_3_Stimuli/S_ambi40.png","自我","Word","自我","Match","f","true","Formal"
"","","","","","psychophysics","103","436886","0.0-9.0-0.0-0.42","1143","","f","","","","","","","","","","","","","key","f","16.668204379562003","710.8333521639864","440.27778944115613","./1_3_Stimuli/S_ambi40.png","自我","Image","自我","Match","f","true","Formal"
"","","","","","psychophysics","104","438925","0.0-9.0-0.0-0.43","874","","f","","","","","","","","","","","","","key","f","16.66751239669446","710.8333521639864","440.27778944115613","./1_3_Stimuli/C_ambi40.png","朋友","Image","朋友","Match","f","true","Formal"
"","","","","","psychophysics","105","440995","0.0-9.0-0.0-0.44","912","","j","","","","","","","","","","","","","key","j","16.668491803278542","710.8333521639864","440.27778944115613","./1_3_Stimuli/T_ambi40.png","自我","Word","他人","Mismatch","j","true","Formal"
"","","","","","psychophysics","106","443327","0.0-9.0-0.0-0.45","1177","","j","","","","","","","","","","","","","key","j","16.66866906474825","710.8333521639864","440.27778944115613","./1_3_Stimuli/T_ambi40.png","朋友","Word","他人","Mismatch","j","true","Formal"
"","","","","","psychophysics","107","445286","0.0-9.0-0.0-0.46","802","","f","","","","","","","","","","","","","key","f","16.66890598290588","710.8333521639864","440.27778944115613","./1_3_Stimuli/C_ambi40.png","朋友","Image","朋友","Match","f","true","Formal"
"","","","","","psychophysics","108","447248","0.0-9.0-0.0-0.47","809","","f","","","","","","","","","","","","","key","f","16.66836206896576","710.8333521639864","440.27778944115613","./1_3_Stimuli/S_ambi40.png","自我","Image","自我","Match","f","true","Formal"
"","","","","","psychophysics","109","449165","0.0-9.0-0.0-0.48","763","","f","","","","","","","","","","","","","key","f","16.668292035398164","710.8333521639864","440.27778944115613","./1_3_Stimuli/C_ambi40.png","朋友","Word","朋友","Match","f","true","Formal"
"","","","","","psychophysics","110","451126","0.0-9.0-0.0-0.49","807","","f","","","","","","","","","","","","","key","f","16.667965517241353","710.8333521639864","440.27778944115613","./1_3_Stimuli/S_ambi40.png","自我","Image","自我","Match","f","true","Formal"
"","","","","","psychophysics","111","452969","0.0-9.0-0.0-0.50","685","","j","","","","","","","","","","","","","key","j","16.667889908256775","710.8333521639864","440.27778944115613","./1_3_Stimuli/C_ambi40.png","他人","Word","朋友","Mismatch","j","true","Formal"
"","","","","","psychophysics","112","454838","0.0-9.0-0.0-0.51","707","","f","","","","","","","","","","","","","key","f","16.668099099098963","710.8333521639864","440.27778944115613","./1_3_Stimuli/S_ambi40.png","自我","Word","自我","Match","f","true","Formal"
"","","","","","psychophysics","113","456804","0.0-9.0-0.0-0.52","802","","j","","","","","","","","","","","","","key","j","16.66826495726525","710.8333521639864","440.27778944115613","./1_3_Stimuli/S_ambi40.png","他人","Word","自我","Mismatch","j","true","Formal"
"","","","","","psychophysics","114","458813","0.0-9.0-0.0-0.53","844","","j","","","","","","","","","","","","","key","j","16.668428571428613","710.8333521639864","440.27778944115613","./1_3_Stimuli/T_ambi40.png","自我","Image","他人","Mismatch","j","true","Formal"
"","","","","","psychophysics","115","460855","0.0-9.0-0.0-0.54","884","","f","","","","","","","","","","","","","key","f","16.668934426229395","710.8333521639864","440.27778944115613","./1_3_Stimuli/S_ambi40.png","自我","Word","自我","Match","f","true","Formal"
"","","","","","psychophysics","116","462789","0.0-9.0-0.0-0.55","768","","f","","","","","","","","","","","","","key","f","16.668408695651905","710.8333521639864","440.27778944115613","./1_3_Stimuli/T_ambi40.png","他人","Word","他人","Match","f","true","Formal"
"","","","","","psychophysics","117","464641","0.0-9.0-0.0-0.56","695","","j","","","","","","","","","","","","","key","j","16.668281818181807","710.8333521639864","440.27778944115613","./1_3_Stimuli/T_ambi40.png","朋友","Image","他人","Mismatch","j","true","Formal"
"","","","","","psychophysics","118","466673","0.0-9.0-0.0-0.57","873","","j","","","","","","","","","","","","","key","j","16.66809917355345","710.8333521639864","440.27778944115613","./1_3_Stimuli/C_ambi40.png","他人","Image","朋友","Mismatch","j","true","Formal"
"","","","","","psychophysics","119","468855","0.0-9.0-0.0-0.58","1018","","j","","","","","","","","","","","","","key","j","16.668361538461447","710.8333521639864","440.27778944115613","./1_3_Stimuli/C_ambi40.png","自我","Image","朋友","Mismatch","j","true","Formal"
"","","","","","psychophysics","120","470783","0.0-9.0-0.0-0.59","769","","j","","","","","","","","","","","","","key","j","16.668684210526152","710.8333521639864","440.27778944115613","./1_3_Stimuli/S_ambi40.png","他人","Image","自我","Mismatch","j","true","Formal"
"","","","","","psychophysics","121","472695","0.0-9.0-0.0-0.60","760","","f","","","","","","","","","","","","","key","f","16.66885964912281","710.8333521639864","440.27778944115613","./1_3_Stimuli/C_ambi40.png","朋友","Image","朋友","Match","f","true","Formal"
"","","","","","psychophysics","122","474584","0.0-9.0-0.0-0.61","731","","f","","","","","","","","","","","","","key","f","16.6684821428571","710.8333521639864","440.27778944115613","./1_3_Stimuli/T_ambi40.png","他人","Image","他人","Match","f","true","Formal"
"","","","","","psychophysics","123","476473","0.0-9.0-0.0-0.62","734","","f","","","","","","","","","","","","","key","f","16.668366071428732","710.8333521639864","440.27778944115613","./1_3_Stimuli/T_ambi40.png","他人","Word","他人","Match","f","true","Formal"
"","","","","","psychophysics","124","478327","0.0-9.0-0.0-0.63","698","","f","","","","","","","","","","","","","key","f","16.667527272727405","710.8333521639864","440.27778944115613","./1_3_Stimuli/T_ambi40.png","他人","Image","他人","Match","f","true","Formal"
"","","","","","psychophysics","125","480252","0.0-9.0-0.0-0.64","765","","f","","","","","","","","","","","","","key","f","16.668798245614184","710.8333521639864","440.27778944115613","./1_3_Stimuli/C_ambi40.png","朋友","Word","朋友","Match","f","true","Formal"
"","","","","","psychophysics","126","482111","0.0-9.0-0.0-0.65","706","","j","","","","","","","","","","","","","key","j","16.66901818181822","710.8333521639864","440.27778944115613","./1_3_Stimuli/T_ambi40.png","自我","Word","他人","Mismatch","j","true","Formal"
"","","","","","psychophysics","127","484057","0.0-9.0-0.0-0.66","785","","j","","","","","","","","","","","","","key","j","16.668137931034614","710.8333521639864","440.27778944115613","./1_3_Stimuli/S_ambi40.png","朋友","Image","自我","Mismatch","j","true","Formal"
"","","","","","psychophysics","128","486000","0.0-9.0-0.0-0.67","777","","f","","","","","","","","","","","","","key","f","16.668747826087106","710.8333521639864","440.27778944115613","./1_3_Stimuli/S_ambi40.png","自我","Image","自我","Match","f","true","Formal"
"","","","","","psychophysics","129","487818","0.0-9.0-0.0-0.68","662","","j","","","","","","","","","","","","","key","j","16.66826851851861","710.8333521639864","440.27778944115613","./1_3_Stimuli/S_ambi40.png","朋友","Word","自我","Mismatch","j","true","Formal"
"","","","","","psychophysics","130","489780","0.0-9.0-0.0-0.69","810","","j","","","","","","","","","","","","","key","j","16.66812931034455","710.8333521639864","440.27778944115613","./1_3_Stimuli/C_ambi40.png","自我","Word","朋友","Mismatch","j","true","Formal"
"","","","","","psychophysics","131","491833","0.0-9.0-0.0-0.70","893","","j","","","","","","","","","","","","","key","j","16.668959016393064","710.8333521639864","440.27778944115613","./1_3_Stimuli/T_ambi40.png","朋友","Word","他人","Mismatch","j","true","Formal"
"","","","","","psychophysics","132","494153","0.0-9.0-0.0-0.71","1163","","f","","","","","","","","","","","","","key","f","16.66798540145961","710.8333521639864","440.27778944115613","./1_3_Stimuli/C_ambi40.png","朋友","Image","朋友","Match","f","true","Formal"
"","","","","","psychophysics","133","496302","0.0-9.0-0.0-0.72","996","","f","","","","","","","","","","","","","key","f","16.668125984252075","710.8333521639864","440.27778944115613","./1_3_Stimuli/T_ambi40.png","他人","Word","他人","Match","f","true","Formal"
"","","","","","psychophysics","134","498225","0.0-9.0-0.0-0.73","768","","j","","","","","","","","","","","","","key","j","16.66878260869543","710.8333521639864","440.27778944115613","./1_3_Stimuli/S_ambi40.png","朋友","Image","自我","Mismatch","j","true","Formal"
"","","","","","psychophysics","135","499977","0.0-9.0-0.0-0.74","587","","f","","","","","","","","","","","","","key","f","16.668288461538257","710.8333521639864","440.27778944115613","./1_3_Stimuli/S_ambi40.png","自我","Word","自我","Match","f","true","Formal"
"","","","","","psychophysics","136","501811","0.0-9.0-0.0-0.75","673","","f","","","","","","","","","","","","","key","f","16.667385321100873","710.8333521639864","440.27778944115613","./1_3_Stimuli/T_ambi40.png","他人","Image","他人","Match","f","true","Formal"
"","","","","","psychophysics","137","503517","0.0-9.0-0.0-0.76","549","","f","","","","","","","","","","","","","key","f","16.66716831683188","710.8333521639864","440.27778944115613","./1_3_Stimuli/C_ambi40.png","朋友","Word","朋友","Match","f","true","Formal"
"","","","","","psychophysics","138","505494","0.0-9.0-0.0-0.77","824","","j","","","","","","","","","","","","","key","j","16.668576271186378","710.8333521639864","440.27778944115613","./1_3_Stimuli/C_ambi40.png","自我","Word","朋友","Mismatch","j","true","Formal"
"","","","","","psychophysics","139","507489","0.0-9.0-0.0-0.78","839","","j","","","","","","","","","","","","","key","j","16.66916101694924","710.8333521639864","440.27778944115613","./1_3_Stimuli/S_ambi40.png","朋友","Word","自我","Mismatch","j","true","Formal"
"","","","","","psychophysics","140","509517","0.0-9.0-0.0-0.79","876","","j","","","","","","","","","","","","","key","j","16.668500000000254","710.8333521639864","440.27778944115613","./1_3_Stimuli/T_ambi40.png","自我","Image","他人","Mismatch","j","true","Formal"
"","","","","","psychophysics","141","511490","0.0-9.0-0.0-0.80","815","","j","","","","","","","","","","","","","key","j","16.668025641026013","710.8333521639864","440.27778944115613","./1_3_Stimuli/C_ambi40.png","他人","Word","朋友","Mismatch","j","true","Formal"
"","","","","","psychophysics","142","513327","0.0-9.0-0.0-0.81","684","","f","","","","","","","","","","","","","key","f","16.668236363636836","710.8333521639864","440.27778944115613","./1_3_Stimuli/S_ambi40.png","自我","Image","自我","Match","f","true","Formal"
"","","","","","psychophysics","143","515133","0.0-9.0-0.0-0.82","641","","f","","","","","","","","","","","","","key","f","16.668588785046634","710.8333521639864","440.27778944115613","./1_3_Stimuli/S_ambi40.png","自我","Word","自我","Match","f","true","Formal"
"","","","","","psychophysics","144","516937","0.0-9.0-0.0-0.83","645","","f","","","","","","","","","","","","","key","f","16.66836448598144","710.8333521639864","440.27778944115613","./1_3_Stimuli/S_ambi40.png","自我","Image","自我","Match","f","true","Formal"
"","","","","","psychophysics","145","518777","0.0-9.0-0.0-0.84","685","","f","","","","","","","","","","","","","key","f","16.669706422018546","710.8333521639864","440.27778944115613","./1_3_Stimuli/T_ambi40.png","他人","Word","他人","Match","f","true","Formal"
"","","","","","psychophysics","146","520597","0.0-9.0-0.0-0.85","655","","j","","","","","","","","","","","","","key","j","16.66830555555579","710.8333521639864","440.27778944115613","./1_3_Stimuli/C_ambi40.png","自我","Image","朋友","Mismatch","j","true","Formal"
"","","","","","psychophysics","147","522985","0.0-9.0-0.0-0.86","1232","","j","","","","","","","","","","","","","key","j","16.667633802816926","710.8333521639864","440.27778944115613","./1_3_Stimuli/S_ambi40.png","他人","Image","自我","Mismatch","j","true","Formal"
"","","","","","psychophysics","148","524847","0.0-9.0-0.0-0.87","706","","j","","","","","","","","","","","","","key","j","16.667720720720443","710.8333521639864","440.27778944115613","./1_3_Stimuli/C_ambi40.png","他人","Image","朋友","Mismatch","j","true","Formal"
"","","","","","psychophysics","149","527014","0.0-9.0-0.0-0.88","1006","","j","","","","","","","","","","","","","key","j","16.668348837209788","710.8333521639864","440.27778944115613","./1_3_Stimuli/S_ambi40.png","他人","Word","自我","Mismatch","j","true","Formal"
"","","","","","psychophysics","150","528872","0.0-9.0-0.0-0.89","698","","f","","","","","","","","","","","","","key","f","16.66839999999978","710.8333521639864","440.27778944115613","./1_3_Stimuli/T_ambi40.png","他人","Image","他人","Match","f","true","Formal"
"","","","","","psychophysics","151","530814","0.0-9.0-0.0-0.90","788","","f","","","","","","","","","","","","","key","f","16.668347826086833","710.8333521639864","440.27778944115613","./1_3_Stimuli/C_ambi40.png","朋友","Image","朋友","Match","f","true","Formal"
"","","","","","psychophysics","152","532738","0.0-9.0-0.0-0.91","768","","j","","","","","","","","","","","","","key","j","16.66816666666745","710.8333521639864","440.27778944115613","./1_3_Stimuli/T_ambi40.png","朋友","Image","他人","Mismatch","j","true","Formal"
"","","","","","psychophysics","153","534638","0.0-9.0-0.0-0.92","744","","j","","","","","","","","","","","","","key","j","16.669633928572043","710.8333521639864","440.27778944115613","./1_3_Stimuli/T_ambi40.png","朋友","Word","他人","Mismatch","j","true","Formal"
"","","","","","psychophysics","154","536448","0.0-9.0-0.0-0.93","655","","f","","","","","","","","","","","","","key","f","16.668787037037504","710.8333521639864","440.27778944115613","./1_3_Stimuli/C_ambi40.png","朋友","Word","朋友","Match","f","true","Formal"
"","","","","","psychophysics","155","538379","0.0-9.0-0.0-0.94","775","","j","","","","","","","","","","","","","key","j","16.814157894736958","710.8333521639864","440.27778944115613","./1_3_Stimuli/T_ambi40.png","自我","Word","他人","Mismatch","j","true","Formal"
"","","","","","psychophysics","156","540220","0.0-9.0-0.0-0.95","678","","f","","","","","","","","","","","","","key","f","16.668770642201373","710.8333521639864","440.27778944115613","./1_3_Stimuli/C_ambi40.png","朋友","Image","朋友","Match","f","true","Formal"
"","","","","","psychophysics","157","542261","0.0-9.0-0.0-0.96","883","","f","","","","","","","","","","","","","key","f","16.668809917355187","710.8333521639864","440.27778944115613","./1_3_Stimuli/T_ambi40.png","他人","Image","他人","Match","f","true","Formal"
"","","","","","psychophysics","158","544100","0.0-9.0-0.0-0.97","681","","j","","","","","","","","","","","","","key","j","16.668000000000315","710.8333521639864","440.27778944115613","./1_3_Stimuli/S_ambi40.png","他人","Image","自我","Mismatch","j","true","Formal"
"","","","","","psychophysics","159","546809","0.0-9.0-0.0-0.98","null","","null","","","","","","","","","","","","","key","null","16.668204968944135","710.8333521639864","440.27778944115613","./1_3_Stimuli/S_ambi40.png","他人","Word","自我","Mismatch","j","false","Formal"
"","","","","","psychophysics","160","549037","0.0-9.0-0.0-0.99","1075","","j","","","","","","","","","","","","","key","j","16.66801515151482","710.8333521639864","440.27778944115613","./1_3_Stimuli/S_ambi40.png","朋友","Word","自我","Mismatch","j","true","Formal"
"","","","","","psychophysics","161","550921","0.0-9.0-0.0-0.100","725","","j","","","","","","","","","","","","","key","j","16.668874999999908","710.8333521639864","440.27778944115613","./1_3_Stimuli/T_ambi40.png","自我","Word","他人","Mismatch","j","true","Formal"
"","","","","","psychophysics","162","552810","0.0-9.0-0.0-0.101","731","","f","","","","","","","","","","","","","key","f","16.668982142856944","710.8333521639864","440.27778944115613","./1_3_Stimuli/C_ambi40.png","朋友","Word","朋友","Match","f","true","Formal"
"","","","","","psychophysics","163","555227","0.0-9.0-0.0-0.102","1264","","f","","","","","","","","","","","","","key","f","16.668256944443986","710.8333521639864","440.27778944115613","./1_3_Stimuli/S_ambi40.png","自我","Image","自我","Match","f","true","Formal"
"","","","","","psychophysics","164","556951","0.0-9.0-0.0-0.103","572","","f","","","","","","","","","","","","","key","f","16.668274509803823","710.8333521639864","440.27778944115613","./1_3_Stimuli/T_ambi40.png","他人","Word","他人","Match","f","true","Formal"
"","","","","","psychophysics","165","558610","0.0-9.0-0.0-0.104","497","","f","","","","","","","","","","","","","key","f","16.66823469387719","710.8333521639864","440.27778944115613","./1_3_Stimuli/C_ambi40.png","朋友","Word","朋友","Match","f","true","Formal"
"","","","","","psychophysics","166","561057","0.0-9.0-0.0-0.105","1294","","f","","","","","","","","","","","","","key","f","16.66818620689647","710.8333521639864","440.27778944115613","./1_3_Stimuli/S_ambi40.png","自我","Word","自我","Match","f","true","Formal"
"","","","","","psychophysics","167","563429","0.0-9.0-0.0-0.106","1216","","j","","","","","","","","","","","","","key","j","16.668262411347353","710.8333521639864","440.27778944115613","./1_3_Stimuli/C_ambi40.png","他人","Image","朋友","Mismatch","j","true","Formal"
"","","","","","psychophysics","168","565506","0.0-9.0-0.0-0.107","925","","j","","","","","","","","","","","","","key","j","16.668918699187007","710.8333521639864","440.27778944115613","./1_3_Stimuli/T_ambi40.png","朋友","Image","他人","Mismatch","j","true","Formal"
"","","","","","psychophysics","169","567556","0.0-9.0-0.0-0.108","892","","j","","","","","","","","","","","","","key","j","16.667811475410776","710.8333521639864","440.27778944115613","./1_3_Stimuli/S_ambi40.png","朋友","Image","自我","Mismatch","j","true","Formal"
"","","","","","psychophysics","170","569475","0.0-9.0-0.0-0.109","768","","j","","","","","","","","","","","","","key","j","16.668201754386374","710.8333521639864","440.27778944115613","./1_3_Stimuli/T_ambi40.png","自我","Image","他人","Mismatch","j","true","Formal"
"","","","","","psychophysics","171","571397","0.0-9.0-0.0-0.110","769","","j","","","","","","","","","","","","","key","j","16.668473684209555","710.8333521639864","440.27778944115613","./1_3_Stimuli/C_ambi40.png","自我","Word","朋友","Mismatch","j","true","Formal"
"","","","","","psychophysics","172","573803","0.0-9.0-0.0-0.111","1254","","f","","","","","","","","","","","","","key","f","16.667888111888328","710.8333521639864","440.27778944115613","./1_3_Stimuli/C_ambi40.png","朋友","Image","朋友","Match","f","true","Formal"
"","","","","","psychophysics","173","575581","0.0-9.0-0.0-0.112","620","","f","","","","","","","","","","","","","key","f","16.66864761904747","710.8333521639864","440.27778944115613","./1_3_Stimuli/C_ambi40.png","朋友","Image","朋友","Match","f","true","Formal"
"","","","","","psychophysics","174","577572","0.0-9.0-0.0-0.113","839","","f","","","","","","","","","","","","","key","f","16.811376068375917","710.8333521639864","440.27778944115613","./1_3_Stimuli/T_ambi40.png","他人","Image","他人","Match","f","true","Formal"
"","","","","","psychophysics","175","579477","0.0-9.0-0.0-0.114","745","","f","","","","","","","","","","","","","key","f","16.667327433628795","710.8333521639864","440.27778944115613","./1_3_Stimuli/S_ambi40.png","自我","Image","自我","Match","f","true","Formal"
"","","","","","psychophysics","176","581176","0.0-9.0-0.0-0.115","543","","f","","","","","","","","","","","","","key","f","16.668860000000567","710.8333521639864","440.27778944115613","./1_3_Stimuli/T_ambi40.png","他人","Word","他人","Match","f","true","Formal"
"","","","","","psychophysics","177","582976","0.0-9.0-0.0-0.116","643","","j","","","","","","","","","","","","","key","j","16.667971962616804","710.8333521639864","440.27778944115613","./1_3_Stimuli/C_ambi40.png","他人","Word","朋友","Mismatch","j","true","Formal"
"","","","","","psychophysics","178","584728","0.0-9.0-0.0-0.117","599","","f","","","","","","","","","","","","","key","f","16.669174757282004","710.8333521639864","440.27778944115613","./1_3_Stimuli/S_ambi40.png","自我","Word","自我","Match","f","true","Formal"
"","","","","","psychophysics","179","586603","0.0-9.0-0.0-0.118","720","","j","","","","","","","","","","","","","key","j","16.667107142857276","710.8333521639864","440.27778944115613","./1_3_Stimuli/C_ambi40.png","自我","Image","朋友","Mismatch","j","true","Formal"
"","","","","","psychophysics","180","588442","0.0-9.0-0.0-0.119","682","","j","","","","","","","","","","","","","key","j","16.668284403669666","710.8333521639864","440.27778944115613","./1_3_Stimuli/T_ambi40.png","朋友","Word","他人","Mismatch","j","true","Formal"
"","","","","","html-keyboard-response","181","594635","0.0-9.0-1.0","6190","<style>.context{color:white; font-size: 35px; line-height:40px}</style>                        <div><p class='context'>您正确回答了97% 的试次。</p><p class='context'>您的平均反应时为832毫秒。</p><p> <div style = 'color: green'><按任意键进入休息></div></p>","arrowleft","","","","","","","","","","","","","","","","","","","","","","","","",""
"","","","","","html-button-response","182","656561","0.0-9.0-2.0","61910","
                  <p>您当前还剩余5组实验</p>
                  <p>现在是休息时间，当您结束休息后，您可以点击 结束休息 按钮 继续</p>
                  <p>建议休息时间还剩余<span id=""iii"">60</span>秒</p>","0","","","","","","","","","","","","","","","","","","","","","","","","",""
"","","","","","psychophysics","183","658640","0.0-9.0-0.1-0.120","923","","f","","","","","","","","","","","","","key","f","16.667991935483915","710.8333521639864","440.27778944115613","./1_3_Stimuli/C_ambi40.png","朋友","Image","朋友","Match","f","true","Formal"
"","","","","","psychophysics","184","660924","0.0-9.0-0.1-0.121","1126","","j","","","","","","","","","","","","","key","j","16.668249999999876","710.8333521639864","440.27778944115613","./1_3_Stimuli/C_ambi40.png","他人","Word","朋友","Mismatch","j","true","Formal"
"","","","","","psychophysics","185","662831","0.0-9.0-0.1-0.122","750","","j","","","","","","","","","","","","","key","j","16.669371681415633","710.8333521639864","440.27778944115613","./1_3_Stimuli/T_ambi40.png","自我","Word","他人","Mismatch","j","true","Formal"
"","","","","","psychophysics","186","664675","0.0-9.0-0.1-0.123","693","","j","","","","","","","","","","","","","key","j","16.667761467889576","710.8333521639864","440.27778944115613","./1_3_Stimuli/C_ambi40.png","他人","Image","朋友","Mismatch","j","true","Formal"
"","","","","","psychophysics","187","666540","0.0-9.0-0.1-0.124","708","","j","","","","","","","","","","","","","key","j","16.667963963963704","710.8333521639864","440.27778944115613","./1_3_Stimuli/T_ambi40.png","朋友","Word","他人","Mismatch","j","true","Formal"
"","","","","","psychophysics","188","668466","0.0-9.0-0.1-0.125","766","","j","","","","","","","","","","","","","key","j","16.66828947368368","710.8333521639864","440.27778944115613","./1_3_Stimuli/T_ambi40.png","朋友","Image","他人","Mismatch","j","true","Formal"
"","","","","","psychophysics","189","670250","0.0-9.0-0.1-0.126","622","","f","","","","","","","","","","","","","key","f","16.668792452830118","710.8333521639864","440.27778944115613","./1_3_Stimuli/C_ambi40.png","朋友","Word","朋友","Match","f","true","Formal"
"","","","","","psychophysics","190","672143","0.0-9.0-0.1-0.127","732","","j","","","","","","","","","","","","","key","j","16.668794642857392","710.8333521639864","440.27778944115613","./1_3_Stimuli/C_ambi40.png","自我","Image","朋友","Mismatch","j","true","Formal"
"","","","","","psychophysics","191","673816","0.0-9.0-0.1-0.128","517","","f","","","","","","","","","","","","","key","f","16.668383838384262","710.8333521639864","440.27778944115613","./1_3_Stimuli/S_ambi40.png","自我","Image","自我","Match","f","true","Formal"
"","","","","","psychophysics","192","675767","0.0-9.0-0.1-0.129","796","","f","","","","","","","","","","","","","key","f","16.667732758620144","710.8333521639864","440.27778944115613","./1_3_Stimuli/T_ambi40.png","他人","Image","他人","Match","f","true","Formal"
"","","","","","psychophysics","193","677581","0.0-9.0-0.1-0.130","656","","f","","","","","","","","","","","","","key","f","16.668252336447754","710.8333521639864","440.27778944115613","./1_3_Stimuli/S_ambi40.png","自我","Word","自我","Match","f","true","Formal"
"","","","","","psychophysics","194","679445","0.0-9.0-0.1-0.131","711","","j","","","","","","","","","","","","","key","j","16.66819090909134","710.8333521639864","440.27778944115613","./1_3_Stimuli/C_ambi40.png","自我","Word","朋友","Mismatch","j","true","Formal"
"","","","","","psychophysics","195","681661","0.0-9.0-0.1-0.132","1059","","j","","","","","","","","","","","","","key","j","16.66868939393934","710.8333521639864","440.27778944115613","./1_3_Stimuli/S_ambi40.png","朋友","Image","自我","Mismatch","j","true","Formal"
"","","","","","psychophysics","196","683597","0.0-9.0-0.1-0.133","780","","j","","","","","","","","","","","","","key","j","16.669269565217522","710.8333521639864","440.27778944115613","./1_3_Stimuli/S_ambi40.png","他人","Image","自我","Mismatch","j","true","Formal"
"","","","","","psychophysics","197","685445","0.0-9.0-0.1-0.134","694","","f","","","","","","","","","","","","","key","f","16.66820909090933","710.8333521639864","440.27778944115613","./1_3_Stimuli/S_ambi40.png","自我","Image","自我","Match","f","true","Formal"
"","","","","","psychophysics","198","687160","0.0-9.0-0.1-0.135","560","","f","","","","","","","","","","","","","key","f","16.668663366336958","710.8333521639864","440.27778944115613","./1_3_Stimuli/T_ambi40.png","他人","Image","他人","Match","f","true","Formal"
"","","","","","psychophysics","199","688914","0.0-9.0-0.1-0.136","596","","f","","","","","","","","","","","","","key","f","16.668644230769132","710.8333521639864","440.27778944115613","./1_3_Stimuli/S_ambi40.png","自我","Word","自我","Match","f","true","Formal"
"","","","","","psychophysics","200","690808","0.0-9.0-0.1-0.137","741","","f","","","","","","","","","","","","","key","f","16.668938053097058","710.8333521639864","440.27778944115613","./1_3_Stimuli/T_ambi40.png","他人","Word","他人","Match","f","true","Formal"
"","","","","","psychophysics","201","692478","0.0-9.0-0.1-0.138","509","","f","","","","","","","","","","","","","key","f","16.667979797979847","710.8333521639864","440.27778944115613","./1_3_Stimuli/C_ambi40.png","朋友","Word","朋友","Match","f","true","Formal"
"","","","","","psychophysics","202","694456","0.0-9.0-0.1-0.139","821","","j","","","","","","","","","","","","","key","j","16.668372881356074","710.8333521639864","440.27778944115613","./1_3_Stimuli/T_ambi40.png","自我","Image","他人","Mismatch","j","true","Formal"
"","","","","","psychophysics","203","696205","0.0-9.0-0.1-0.140","596","","f","","","","","","","","","","","","","key","f","16.668182692308058","710.8333521639864","440.27778944115613","./1_3_Stimuli/C_ambi40.png","朋友","Image","朋友","Match","f","true","Formal"
"","","","","","psychophysics","204","698011","0.0-9.0-0.1-0.141","644","","j","","","","","","","","","","","","","key","j","16.668514018692292","710.8333521639864","440.27778944115613","./1_3_Stimuli/S_ambi40.png","他人","Word","自我","Mismatch","j","true","Formal"
"","","","","","psychophysics","205","699764","0.0-9.0-0.1-0.142","596","","f","","","","","","","","","","","","","key","f","16.670009615384444","710.8333521639864","440.27778944115613","./1_3_Stimuli/T_ambi40.png","他人","Word","他人","Match","f","true","Formal"
"","","","","","psychophysics","206","702469","0.0-9.0-0.1-0.143","null","","null","","","","","","","","","","","","","key","null","16.668316770186618","710.8333521639864","440.27778944115613","./1_3_Stimuli/S_ambi40.png","朋友","Word","自我","Mismatch","j","false","Formal"
"","","","","","psychophysics","207","704446","0.0-9.0-0.1-0.144","820","","j","","","","","","","","","","","","","key","j","16.667888888888235","710.8333521639864","440.27778944115613","./1_3_Stimuli/T_ambi40.png","朋友","Word","他人","Mismatch","j","true","Formal"
"","","","","","psychophysics","208","706085","0.0-9.0-0.1-0.145","481","","f","","","","","","","","","","","","","key","f","16.668237113402245","710.8333521639864","440.27778944115613","./1_3_Stimuli/S_ambi40.png","自我","Word","自我","Match","f","true","Formal"
"","","","","","psychophysics","209","707881","0.0-9.0-0.1-0.146","645","","j","","","","","","","","","","","","","key","j","16.66796226415098","710.8333521639864","440.27778944115613","./1_3_Stimuli/C_ambi40.png","自我","Word","朋友","Mismatch","j","true","Formal"
"","","","","","psychophysics","210","710141","0.0-9.0-0.1-0.147","1104","","f","","","","","","","","","","","","","key","f","16.668585185184902","710.8333521639864","440.27778944115613","./1_3_Stimuli/S_ambi40.png","自我","Image","自我","Match","f","true","Formal"
"","","","","","psychophysics","211","711924","0.0-9.0-0.1-0.148","629","","f","","","","","","","","","","","","","key","f","16.66786792452825","710.8333521639864","440.27778944115613","./1_3_Stimuli/T_ambi40.png","他人","Image","他人","Match","f","true","Formal"
"","","","","","psychophysics","212","713769","0.0-9.0-0.1-0.149","691","","j","","","","","","","","","","","","","key","j","16.669596330275535","710.8333521639864","440.27778944115613","./1_3_Stimuli/C_ambi40.png","他人","Word","朋友","Mismatch","j","true","Formal"
"","","","","","psychophysics","213","715588","0.0-9.0-0.1-0.150","667","","j","","","","","","","","","","","","","key","j","16.66899074074118","710.8333521639864","440.27778944115613","./1_3_Stimuli/C_ambi40.png","他人","Image","朋友","Mismatch","j","true","Formal"
"","","","","","psychophysics","214","717413","0.0-9.0-0.1-0.151","658","","j","","","","","","","","","","","","","key","j","16.668768518518103","710.8333521639864","440.27778944115613","./1_3_Stimuli/S_ambi40.png","他人","Image","自我","Mismatch","j","true","Formal"
"","","","","","psychophysics","215","719176","0.0-9.0-0.1-0.152","606","","f","","","","","","","","","","","","","key","f","16.668161904761966","710.8333521639864","440.27778944115613","./1_3_Stimuli/T_ambi40.png","他人","Word","他人","Match","f","true","Formal"
"","","","","","psychophysics","216","720971","0.0-9.0-0.1-0.153","634","","j","","","","","","","","","","","","","key","j","16.66828971962601","710.8333521639864","440.27778944115613","./1_3_Stimuli/T_ambi40.png","朋友","Image","他人","Mismatch","j","true","Formal"
"","","","","","psychophysics","217","722735","0.0-9.0-0.1-0.154","604","","f","","","","","","","","","","","","","key","f","16.668365384614354","710.8333521639864","440.27778944115613","./1_3_Stimuli/C_ambi40.png","朋友","Word","朋友","Match","f","true","Formal"
"","","","","","psychophysics","218","724754","0.0-9.0-0.1-0.155","866","","j","","","","","","","","","","","","","key","j","16.669310924370123","710.8333521639864","440.27778944115613","./1_3_Stimuli/S_ambi40.png","朋友","Image","自我","Mismatch","j","true","Formal"
"","","","","","psychophysics","219","726614","0.0-9.0-0.1-0.156","705","","f","","","","","","","","","","","","","key","f","16.668554545455315","710.8333521639864","440.27778944115613","./1_3_Stimuli/C_ambi40.png","朋友","Image","朋友","Match","f","true","Formal"
"","","","","","psychophysics","220","728368","0.0-9.0-0.1-0.157","602","","j","","","","","","","","","","","","","key","j","16.6683846153845","710.8333521639864","440.27778944115613","./1_3_Stimuli/C_ambi40.png","自我","Image","朋友","Mismatch","j","true","Formal"
"","","","","","psychophysics","221","730309","0.0-9.0-0.1-0.158","786","","j","","","","","","","","","","","","","key","j","16.66842608695708","710.8333521639864","440.27778944115613","./1_3_Stimuli/T_ambi40.png","自我","Image","他人","Mismatch","j","true","Formal"
"","","","","","psychophysics","222","732250","0.0-9.0-0.1-0.159","782","","f","","","","","","","","","","","","","key","f","16.668434782608657","710.8333521639864","440.27778944115613","./1_3_Stimuli/C_ambi40.png","朋友","Word","朋友","Match","f","true","Formal"
"","","","","","psychophysics","223","734122","0.0-9.0-0.1-0.160","720","","j","","","","","","","","","","","","","key","j","16.668781818181742","710.8333521639864","440.27778944115613","./1_3_Stimuli/S_ambi40.png","他人","Word","自我","Mismatch","j","true","Formal"
"","","","","","psychophysics","224","735883","0.0-9.0-0.1-0.161","608","","f","","","","","","","","","","","","","key","f","16.66847115384567","710.8333521639864","440.27778944115613","./1_3_Stimuli/C_ambi40.png","朋友","Image","朋友","Match","f","true","Formal"
"","","","","","psychophysics","225","737917","0.0-9.0-0.1-0.162","877","","j","","","","","","","","","","","","","key","j","16.66892561983521","710.8333521639864","440.27778944115613","./1_3_Stimuli/T_ambi40.png","自我","Word","他人","Mismatch","j","true","Formal"
"","","","","","psychophysics","226","739861","0.0-9.0-0.1-0.163","788","","j","","","","","","","","","","","","","key","j","16.66847413793158","710.8333521639864","440.27778944115613","./1_3_Stimuli/S_ambi40.png","朋友","Word","自我","Mismatch","j","true","Formal"
"","","","","","psychophysics","227","741525","0.0-9.0-0.1-0.164","504","","f","","","","","","","","","","","","","key","f","16.668070707070367","710.8333521639864","440.27778944115613","./1_3_Stimuli/T_ambi40.png","他人","Word","他人","Match","f","true","Formal"
"","","","","","psychophysics","228","743344","0.0-9.0-0.1-0.165","664","","f","","","","","","","","","","","","","key","f","16.667731481481397","710.8333521639864","440.27778944115613","./1_3_Stimuli/S_ambi40.png","自我","Word","自我","Match","f","true","Formal"
"","","","","","psychophysics","229","745943","0.0-9.0-0.1-0.166","1440","","f","","","","","","","","","","","","","key","f","16.668045161290454","710.8333521639864","440.27778944115613","./1_3_Stimuli/S_ambi40.png","自我","Image","自我","Match","f","true","Formal"
"","","","","","psychophysics","230","747757","0.0-9.0-0.1-0.167","659","","f","","","","","","","","","","","","","key","f","16.669719626167442","710.8333521639864","440.27778944115613","./1_3_Stimuli/T_ambi40.png","他人","Image","他人","Match","f","true","Formal"
"","","","","","psychophysics","231","749482","0.0-9.0-0.1-0.168","563","","f","","","","","","","","","","","","","key","f","16.668941176470195","710.8333521639864","440.27778944115613","./1_3_Stimuli/S_ambi40.png","自我","Word","自我","Match","f","true","Formal"
"","","","","","psychophysics","232","751199","0.0-9.0-0.1-0.169","565","","f","","","","","","","","","","","","","key","f","16.667784313726074","710.8333521639864","440.27778944115613","./1_3_Stimuli/C_ambi40.png","朋友","Word","朋友","Match","f","true","Formal"
"","","","","","psychophysics","233","753049","0.0-9.0-0.1-0.170","698","","j","","","","","","","","","","","","","key","j","16.668145454545844","710.8333521639864","440.27778944115613","./1_3_Stimuli/C_ambi40.png","他人","Image","朋友","Mismatch","j","true","Formal"
"","","","","","psychophysics","234","754777","0.0-9.0-0.1-0.171","571","","f","","","","","","","","","","","","","key","f","16.66787378640746","710.8333521639864","440.27778944115613","./1_3_Stimuli/T_ambi40.png","他人","Image","他人","Match","f","true","Formal"
"","","","","","psychophysics","235","756677","0.0-9.0-0.1-0.172","736","","j","","","","","","","","","","","","","key","j","16.668362831858612","710.8333521639864","440.27778944115613","./1_3_Stimuli/S_ambi40.png","朋友","Image","自我","Mismatch","j","true","Formal"
"","","","","","psychophysics","236","758446","0.0-9.0-0.1-0.173","611","","f","","","","","","","","","","","","","key","f","16.66852380952332","710.8333521639864","440.27778944115613","./1_3_Stimuli/S_ambi40.png","自我","Word","自我","Match","f","true","Formal"
"","","","","","psychophysics","237","760110","0.0-9.0-0.1-0.174","502","","f","","","","","","","","","","","","","key","f","16.668696969696978","710.8333521639864","440.27778944115613","./1_3_Stimuli/S_ambi40.png","自我","Image","自我","Match","f","true","Formal"
"","","","","","psychophysics","238","761904","0.0-9.0-0.1-0.175","639","","j","","","","","","","","","","","","","key","j","16.668311320754857","710.8333521639864","440.27778944115613","./1_3_Stimuli/C_ambi40.png","自我","Image","朋友","Mismatch","j","true","Formal"
"","","","","","psychophysics","239","763612","0.0-9.0-0.1-0.176","553","","f","","","","","","","","","","","","","key","f","16.668470588235376","710.8333521639864","440.27778944115613","./1_3_Stimuli/T_ambi40.png","他人","Word","他人","Match","f","true","Formal"
"","","","","","psychophysics","240","765503","0.0-9.0-0.1-0.177","739","","j","","","","","","","","","","","","","key","j","16.66854464285695","710.8333521639864","440.27778944115613","./1_3_Stimuli/S_ambi40.png","朋友","Word","自我","Mismatch","j","true","Formal"
"","","","","","psychophysics","241","767180","0.0-9.0-0.1-0.178","521","","f","","","","","","","","","","","","","key","f","16.668649999999907","710.8333521639864","440.27778944115613","./1_3_Stimuli/T_ambi40.png","他人","Word","他人","Match","f","true","Formal"
"","","","","","psychophysics","242","768808","0.0-9.0-0.1-0.179","467","","f","","","","","","","","","","","","","key","f","16.668104166667035","710.8333521639864","440.27778944115613","./1_3_Stimuli/C_ambi40.png","朋友","Word","朋友","Match","f","true","Formal"
"","","","","","psychophysics","243","770723","0.0-9.0-0.1-0.180","763","","j","","","","","","","","","","","","","key","j","16.667495575221462","710.8333521639864","440.27778944115613","./1_3_Stimuli/T_ambi40.png","自我","Word","他人","Mismatch","j","true","Formal"
"","","","","","psychophysics","244","772644","0.0-9.0-0.1-0.181","768","","j","","","","","","","","","","","","","key","j","16.668321739130086","710.8333521639864","440.27778944115613","./1_3_Stimuli/T_ambi40.png","朋友","Image","他人","Mismatch","j","true","Formal"
"","","","","","psychophysics","245","774478","0.0-9.0-0.1-0.182","675","","j","","","","","","","","","","","","","key","j","16.66743119266055","710.8333521639864","440.27778944115613","./1_3_Stimuli/T_ambi40.png","自我","Image","他人","Mismatch","j","true","Formal"
"","","","","","psychophysics","246","776277","0.0-9.0-0.1-0.183","634","","j","","","","","","","","","","","","","key","j","16.668130841121407","710.8333521639864","440.27778944115613","./1_3_Stimuli/T_ambi40.png","朋友","Word","他人","Mismatch","j","true","Formal"
"","","","","","psychophysics","247","778146","0.0-9.0-0.1-0.184","710","","j","","","","","","","","","","","","","key","j","16.668792792793095","710.8333521639864","440.27778944115613","./1_3_Stimuli/C_ambi40.png","自我","Word","朋友","Mismatch","j","true","Formal"
"","","","","","psychophysics","248","779921","0.0-9.0-0.1-0.185","622","","f","","","","","","","","","","","","","key","f","16.66838095238144","710.8333521639864","440.27778944115613","./1_3_Stimuli/C_ambi40.png","朋友","Image","朋友","Match","f","true","Formal"
"","","","","","psychophysics","249","781638","0.0-9.0-0.1-0.186","561","","f","","","","","","","","","","","","","key","f","16.668108910891586","710.8333521639864","440.27778944115613","./1_3_Stimuli/S_ambi40.png","自我","Image","自我","Match","f","true","Formal"
"","","","","","psychophysics","250","783409","0.0-9.0-0.1-0.187","615","","j","","","","","","","","","","","","","key","j","16.668504761905588","710.8333521639864","440.27778944115613","./1_3_Stimuli/S_ambi40.png","他人","Image","自我","Mismatch","j","true","Formal"
"","","","","","psychophysics","251","785272","0.0-9.0-0.1-0.188","710","","f","","","","","","","","","","","","","key","f","16.66826363636329","710.8333521639864","440.27778944115613","./1_3_Stimuli/C_ambi40.png","朋友","Image","朋友","Match","f","true","Formal"
"","","","","","psychophysics","252","787031","0.0-9.0-0.1-0.189","604","","f","","","","","","","","","","","","","key","f","16.668057142856664","710.8333521639864","440.27778944115613","./1_3_Stimuli/T_ambi40.png","他人","Image","他人","Match","f","true","Formal"
"","","","","","psychophysics","253","788924","0.0-9.0-0.1-0.190","739","","j","","","","","","","","","","","","","key","j","16.668812500000058","710.8333521639864","440.27778944115613","./1_3_Stimuli/C_ambi40.png","他人","Word","朋友","Mismatch","j","true","Formal"
"","","","","","psychophysics","254","790896","0.0-9.0-0.1-0.191","818","","j","","","","","","","","","","","","","key","j","16.66876271186432","710.8333521639864","440.27778944115613","./1_3_Stimuli/S_ambi40.png","他人","Word","自我","Mismatch","j","true","Formal"
"","","","","","psychophysics","255","792559","0.0-9.0-0.1-0.192","508","","f","","","","","","","","","","","","","key","f","16.668663265305923","710.8333521639864","440.27778944115613","./1_3_Stimuli/C_ambi40.png","朋友","Word","朋友","Match","f","true","Formal"
"","","","","","psychophysics","256","794333","0.0-9.0-0.1-0.193","621","","f","","","","","","","","","","","","","key","f","16.66857547169872","710.8333521639864","440.27778944115613","./1_3_Stimuli/S_ambi40.png","自我","Word","自我","Match","f","true","Formal"
"","","","","","psychophysics","257","796338","0.0-9.0-0.1-0.194","847","","j","","","","","","","","","","","","","key","j","16.668756302521455","710.8333521639864","440.27778944115613","./1_3_Stimuli/T_ambi40.png","朋友","Word","他人","Mismatch","j","true","Formal"
"","","","","","psychophysics","258","798217","0.0-9.0-0.1-0.195","726","","f","","","","","","","","","","","","","key","f","16.6684821428571","710.8333521639864","440.27778944115613","./1_3_Stimuli/T_ambi40.png","他人","Word","他人","Match","f","true","Formal"
"","","","","","psychophysics","259","800645","0.0-9.0-0.1-0.196","1269","","j","","","","","","","","","","","","","key","j","16.66833333333327","710.8333521639864","440.27778944115613","./1_3_Stimuli/T_ambi40.png","自我","Image","他人","Mismatch","j","true","Formal"
"","","","","","psychophysics","260","802421","0.0-9.0-0.1-0.197","625","","f","","","","","","","","","","","","","key","f","16.668457142856816","710.8333521639864","440.27778944115613","./1_3_Stimuli/T_ambi40.png","他人","Word","他人","Match","f","true","Formal"
"","","","","","psychophysics","261","804305","0.0-9.0-0.1-0.198","727","","j","","","","","","","","","","","","","key","j","16.668928571428946","710.8333521639864","440.27778944115613","./1_3_Stimuli/C_ambi40.png","自我","Word","朋友","Mismatch","j","true","Formal"
"","","","","","psychophysics","262","806038","0.0-9.0-0.1-0.199","576","","f","","","","","","","","","","","","","key","f","16.66836893203831","710.8333521639864","440.27778944115613","./1_3_Stimuli/C_ambi40.png","朋友","Image","朋友","Match","f","true","Formal"
"","","","","","psychophysics","263","807898","0.0-9.0-0.1-0.200","702","","f","","","","","","","","","","","","","key","f","16.66825225225205","710.8333521639864","440.27778944115613","./1_3_Stimuli/S_ambi40.png","自我","Word","自我","Match","f","true","Formal"
"","","","","","psychophysics","264","809843","0.0-9.0-0.1-0.201","787","","f","","","","","","","","","","","","","key","f","16.66800869565214","710.8333521639864","440.27778944115613","./1_3_Stimuli/S_ambi40.png","自我","Image","自我","Match","f","true","Formal"
"","","","","","psychophysics","265","811733","0.0-9.0-0.1-0.202","737","","j","","","","","","","","","","","","","key","j","16.667991071428073","710.8333521639864","440.27778944115613","./1_3_Stimuli/S_ambi40.png","朋友","Image","自我","Mismatch","j","true","Formal"
"","","","","","psychophysics","266","813537","0.0-9.0-0.1-0.203","648","","j","","","","","","","","","","","","","key","j","16.66823364486026","710.8333521639864","440.27778944115613","./1_3_Stimuli/S_ambi40.png","他人","Word","自我","Mismatch","j","true","Formal"
"","","","","","psychophysics","267","815222","0.0-9.0-0.1-0.204","525","","f","","","","","","","","","","","","","key","f","16.66872999999905","710.8333521639864","440.27778944115613","./1_3_Stimuli/T_ambi40.png","他人","Image","他人","Match","f","true","Formal"
"","","","","","psychophysics","268","816900","0.0-9.0-0.1-0.205","520","","f","","","","","","","","","","","","","key","f","16.670449999999256","710.8333521639864","440.27778944115613","./1_3_Stimuli/T_ambi40.png","他人","Image","他人","Match","f","true","Formal"
"","","","","","psychophysics","269","818608","0.0-9.0-0.1-0.206","545","","j","","","","","","","","","","","","","key","j","16.66703960396082","710.8333521639864","440.27778944115613","./1_3_Stimuli/C_ambi40.png","他人","Image","朋友","Mismatch","j","true","Formal"
"","","","","","psychophysics","270","820312","0.0-9.0-0.1-0.207","549","","f","","","","","","","","","","","","","key","f","16.668792079208593","710.8333521639864","440.27778944115613","./1_3_Stimuli/C_ambi40.png","朋友","Image","朋友","Match","f","true","Formal"
"","","","","","psychophysics","271","822087","0.0-9.0-0.1-0.208","623","","j","","","","","","","","","","","","","key","j","16.66778095238177","710.8333521639864","440.27778944115613","./1_3_Stimuli/C_ambi40.png","自我","Image","朋友","Mismatch","j","true","Formal"
"","","","","","psychophysics","272","823835","0.0-9.0-0.1-0.209","588","","j","","","","","","","","","","","","","key","j","16.6680485436894","710.8333521639864","440.27778944115613","./1_3_Stimuli/C_ambi40.png","他人","Word","朋友","Mismatch","j","true","Formal"
"","","","","","psychophysics","273","825680","0.0-9.0-0.1-0.210","683","","j","","","","","","","","","","","","","key","j","16.668605504587394","710.8333521639864","440.27778944115613","./1_3_Stimuli/T_ambi40.png","朋友","Image","他人","Mismatch","j","true","Formal"
"","","","","","psychophysics","274","827629","0.0-9.0-0.1-0.211","787","","j","","","","","","","","","","","","","key","j","16.668060869564627","710.8333521639864","440.27778944115613","./1_3_Stimuli/S_ambi40.png","朋友","Word","自我","Mismatch","j","true","Formal"
"","","","","","psychophysics","275","829385","0.0-9.0-0.1-0.212","603","","f","","","","","","","","","","","","","key","f","16.667771428571793","710.8333521639864","440.27778944115613","./1_3_Stimuli/C_ambi40.png","朋友","Word","朋友","Match","f","true","Formal"
"","","","","","psychophysics","276","831249","0.0-9.0-0.1-0.213","710","","j","","","","","","","","","","","","","key","j","16.667963963963704","710.8333521639864","440.27778944115613","./1_3_Stimuli/T_ambi40.png","自我","Word","他人","Mismatch","j","true","Formal"
"","","","","","psychophysics","277","833185","0.0-9.0-0.1-0.214","777","","f","","","","","","","","","","","","","key","f","16.6685130434789","710.8333521639864","440.27778944115613","./1_3_Stimuli/S_ambi40.png","自我","Image","自我","Match","f","true","Formal"
"","","","","","psychophysics","278","835084","0.0-9.0-0.1-0.215","740","","j","","","","","","","","","","","","","key","j","16.668964601769854","710.8333521639864","440.27778944115613","./1_3_Stimuli/S_ambi40.png","他人","Image","自我","Mismatch","j","true","Formal"
"","","","","","psychophysics","279","837475","0.0-9.0-0.1-0.216","1227","","j","","","","","","","","","","","","","key","j","16.668014084507096","710.8333521639864","440.27778944115613","./1_3_Stimuli/S_ambi40.png","朋友","Word","自我","Mismatch","j","true","Formal"
"","","","","","psychophysics","280","839237","0.0-9.0-0.1-0.217","604","","j","","","","","","","","","","","","","key","j","16.669085714285305","710.8333521639864","440.27778944115613","./1_3_Stimuli/T_ambi40.png","自我","Image","他人","Mismatch","j","true","Formal"
"","","","","","psychophysics","281","840986","0.0-9.0-0.1-0.218","593","","j","","","","","","","","","","","","","key","j","16.669326923076788","710.8333521639864","440.27778944115613","./1_3_Stimuli/C_ambi40.png","自我","Image","朋友","Mismatch","j","true","Formal"
"","","","","","psychophysics","282","842817","0.0-9.0-0.1-0.219","675","","j","","","","","","","","","","","","","key","j","16.668477064219662","710.8333521639864","440.27778944115613","./1_3_Stimuli/C_ambi40.png","他人","Image","朋友","Mismatch","j","true","Formal"
"","","","","","psychophysics","283","844775","0.0-9.0-0.1-0.220","804","","j","","","","","","","","","","","","","key","j","16.6684224137932","710.8333521639864","440.27778944115613","./1_3_Stimuli/S_ambi40.png","朋友","Image","自我","Mismatch","j","true","Formal"
"","","","","","psychophysics","284","846604","0.0-9.0-0.1-0.221","671","","f","","","","","","","","","","","","","key","f","16.667853211009994","710.8333521639864","440.27778944115613","./1_3_Stimuli/C_ambi40.png","朋友","Word","朋友","Match","f","true","Formal"
"","","","","","psychophysics","285","848348","0.0-9.0-0.1-0.222","591","","j","","","","","","","","","","","","","key","j","16.668660194174503","710.8333521639864","440.27778944115613","./1_3_Stimuli/T_ambi40.png","朋友","Image","他人","Mismatch","j","true","Formal"
"","","","","","psychophysics","286","850485","0.0-9.0-0.1-0.223","985","","f","","","","","","","","","","","","","key","f","16.668669291339288","710.8333521639864","440.27778944115613","./1_3_Stimuli/C_ambi40.png","朋友","Image","朋友","Match","f","true","Formal"
"","","","","","psychophysics","287","852274","0.0-9.0-0.1-0.224","627","","f","","","","","","","","","","","","","key","f","16.667915094339612","710.8333521639864","440.27778944115613","./1_3_Stimuli/C_ambi40.png","朋友","Image","朋友","Match","f","true","Formal"
"","","","","","psychophysics","288","853910","0.0-9.0-0.1-0.225","476","","f","","","","","","","","","","","","","key","f","16.668237113402245","710.8333521639864","440.27778944115613","./1_3_Stimuli/C_ambi40.png","朋友","Word","朋友","Match","f","true","Formal"
"","","","","","psychophysics","289","855709","0.0-9.0-0.1-0.226","641","","j","","","","","","","","","","","","","key","j","16.66768224299102","710.8333521639864","440.27778944115613","./1_3_Stimuli/C_ambi40.png","自我","Word","朋友","Mismatch","j","true","Formal"
"","","","","","psychophysics","290","857516","0.0-9.0-0.1-0.227","649","","f","","","","","","","","","","","","","key","f","16.668448598130613","710.8333521639864","440.27778944115613","./1_3_Stimuli/S_ambi40.png","自我","Image","自我","Match","f","true","Formal"
"","","","","","psychophysics","291","859227","0.0-9.0-0.1-0.228","559","","f","","","","","","","","","","","","","key","f","16.669158415842368","710.8333521639864","440.27778944115613","./1_3_Stimuli/S_ambi40.png","自我","Image","自我","Match","f","true","Formal"
"","","","","","psychophysics","292","860971","0.0-9.0-0.1-0.229","587","","j","","","","","","","","","","","","","key","j","16.667355769231037","710.8333521639864","440.27778944115613","./1_3_Stimuli/S_ambi40.png","他人","Word","自我","Mismatch","j","true","Formal"
"","","","","","psychophysics","293","863087","0.0-9.0-0.1-0.230","952","","j","","","","","","","","","","","","","key","j","16.66859523809537","710.8333521639864","440.27778944115613","./1_3_Stimuli/T_ambi40.png","朋友","Word","他人","Mismatch","j","true","Formal"
"","","","","","psychophysics","294","864831","0.0-9.0-0.1-0.231","586","","f","","","","","","","","","","","","","key","f","16.668660194174503","710.8333521639864","440.27778944115613","./1_3_Stimuli/T_ambi40.png","他人","Word","他人","Match","f","true","Formal"
"","","","","","psychophysics","295","866544","0.0-9.0-0.1-0.232","558","","j","","","","","","","","","","","","","key","j","16.668519607843265","710.8333521639864","440.27778944115613","./1_3_Stimuli/C_ambi40.png","他人","Word","朋友","Mismatch","j","true","Formal"
"","","","","","psychophysics","296","868234","0.0-9.0-0.1-0.233","532","","f","","","","","","","","","","","","","key","f","16.66765000000014","710.8333521639864","440.27778944115613","./1_3_Stimuli/S_ambi40.png","自我","Word","自我","Match","f","true","Formal"
"","","","","","psychophysics","297","870064","0.0-9.0-0.1-0.234","677","","f","","","","","","","","","","","","","key","f","16.668777777777805","710.8333521639864","440.27778944115613","./1_3_Stimuli/T_ambi40.png","他人","Image","他人","Match","f","true","Formal"
"","","","","","psychophysics","298","871833","0.0-9.0-0.1-0.235","614","","j","","","","","","","","","","","","","key","j","16.669586538461424","710.8333521639864","440.27778944115613","./1_3_Stimuli/T_ambi40.png","自我","Word","他人","Mismatch","j","true","Formal"
"","","","","","psychophysics","299","873757","0.0-9.0-0.1-0.236","771","","f","","","","","","","","","","","","","key","f","16.668333333332843","710.8333521639864","440.27778944115613","./1_3_Stimuli/T_ambi40.png","他人","Word","他人","Match","f","true","Formal"
"","","","","","psychophysics","300","875670","0.0-9.0-0.1-0.237","756","","j","","","","","","","","","","","","","key","j","16.668610619468637","710.8333521639864","440.27778944115613","./1_3_Stimuli/S_ambi40.png","他人","Image","自我","Mismatch","j","true","Formal"
"","","","","","psychophysics","301","877698","0.0-9.0-0.1-0.238","863","","f","","","","","","","","","","","","","key","f","16.66821666666656","710.8333521639864","440.27778944115613","./1_3_Stimuli/S_ambi40.png","自我","Word","自我","Match","f","true","Formal"
"","","","","","psychophysics","302","879493","0.0-9.0-0.1-0.239","640","","f","","","","","","","","","","","","","key","f","16.66866355140097","710.8333521639864","440.27778944115613","./1_3_Stimuli/T_ambi40.png","他人","Image","他人","Match","f","true","Formal"
"","","","","","html-keyboard-response","303","884656","0.0-9.0-1.1","5158","<style>.context{color:white; font-size: 35px; line-height:40px}</style>                        <div><p class='context'>您正确回答了99% 的试次。</p><p class='context'>您的平均反应时为694毫秒。</p><p> <div style = 'color: green'><按任意键进入休息></div></p>","j","","","","","","","","","","","","","","","","","","","","","","","","",""
"","","","","","html-button-response","304","945234","0.0-9.0-2.1","60564","
                  <p>您当前还剩余4组实验</p>
                  <p>现在是休息时间，当您结束休息后，您可以点击 结束休息 按钮 继续</p>
                  <p>建议休息时间还剩余<span id=""iii"">60</span>秒</p>","0","","","","","","","","","","","","","","","","","","","","","","","","",""
"","","","","","psychophysics","305","947834","0.0-9.0-0.2-0.240","1444","","f","","","","","","","","","","","","","key","f","16.669283870968126","710.8333521639864","440.27778944115613","./1_3_Stimuli/T_ambi40.png","他人","Word","他人","Match","f","true","Formal"
"","","","","","psychophysics","306","950119","0.0-9.0-0.2-0.241","1130","","j","","","","","","","","","","","","","key","j","16.668308823529514","710.8333521639864","440.27778944115613","./1_3_Stimuli/C_ambi40.png","自我","Image","朋友","Mismatch","j","true","Formal"
"","","","","","psychophysics","307","951824","0.0-9.0-0.2-0.242","550","","j","","","","","","","","","","","","","key","j","16.669274509804524","710.8333521639864","440.27778944115613","./1_3_Stimuli/S_ambi40.png","朋友","Word","自我","Mismatch","j","true","Formal"
"","","","","","psychophysics","308","953572","0.0-9.0-0.2-0.243","587","","j","","","","","","","","","","","","","key","j","16.668679611651154","710.8333521639864","440.27778944115613","./1_3_Stimuli/S_ambi40.png","自我","Image","自我","Match","f","false","Formal"
"","","","","","psychophysics","309","955303","0.0-9.0-0.2-0.244","580","","f","","","","","","","","","","","","","key","f","16.668784313725638","710.8333521639864","440.27778944115613","./1_3_Stimuli/C_ambi40.png","朋友","Image","朋友","Match","f","true","Formal"
"","","","","","psychophysics","310","957115","0.0-9.0-0.2-0.245","658","","j","","","","","","","","","","","","","key","j","16.66893518518514","710.8333521639864","440.27778944115613","./1_3_Stimuli/S_ambi40.png","朋友","Image","自我","Mismatch","j","true","Formal"
"","","","","","psychophysics","311","958930","0.0-9.0-0.2-0.246","659","","j","","","","","","","","","","","","","key","j","16.66800925925943","710.8333521639864","440.27778944115613","./1_3_Stimuli/C_ambi40.png","他人","Image","朋友","Mismatch","j","true","Formal"
"","","","","","psychophysics","312","960699","0.0-9.0-0.2-0.247","608","","j","","","","","","","","","","","","","key","j","16.668238095237342","710.8333521639864","440.27778944115613","./1_3_Stimuli/S_ambi40.png","他人","Word","自我","Mismatch","j","true","Formal"
"","","","","","psychophysics","313","962483","0.0-9.0-0.2-0.248","626","","j","","","","","","","","","","","","","key","j","16.667566037735735","710.8333521639864","440.27778944115613","./1_3_Stimuli/T_ambi40.png","自我","Word","他人","Mismatch","j","true","Formal"
"","","","","","psychophysics","314","964163","0.0-9.0-0.2-0.249","521","","f","","","","","","","","","","","","","key","f","16.667880000000586","710.8333521639864","440.27778944115613","./1_3_Stimuli/S_ambi40.png","自我","Word","自我","Match","f","true","Formal"
"","","","","","psychophysics","315","966112","0.0-9.0-0.2-0.250","791","","j","","","","","","","","","","","","","key","j","16.667896551724347","710.8333521639864","440.27778944115613","./1_3_Stimuli/T_ambi40.png","朋友","Image","他人","Mismatch","j","true","Formal"
"","","","","","psychophysics","316","967981","0.0-9.0-0.2-0.251","710","","j","","","","","","","","","","","","","key","j","16.668297297298185","710.8333521639864","440.27778944115613","./1_3_Stimuli/T_ambi40.png","自我","Image","他人","Mismatch","j","true","Formal"
"","","","","","psychophysics","317","969765","0.0-9.0-0.2-0.252","624","","f","","","","","","","","","","","","","key","f","16.668367924527836","710.8333521639864","440.27778944115613","./1_3_Stimuli/S_ambi40.png","自我","Image","自我","Match","f","true","Formal"
"","","","","","psychophysics","318","971490","0.0-9.0-0.2-0.253","565","","f","","","","","","","","","","","","","key","f","16.667833333332823","710.8333521639864","440.27778944115613","./1_3_Stimuli/C_ambi40.png","朋友","Image","朋友","Match","f","true","Formal"
"","","","","","psychophysics","319","973188","0.0-9.0-0.2-0.254","547","","f","","","","","","","","","","","","","key","f","16.668859999999405","710.8333521639864","440.27778944115613","./1_3_Stimuli/T_ambi40.png","他人","Image","他人","Match","f","true","Formal"
"","","","","","psychophysics","320","975324","0.0-9.0-0.2-0.255","983","","f","","","","","","","","","","","","","key","f","16.66787301587303","710.8333521639864","440.27778944115613","./1_3_Stimuli/C_ambi40.png","朋友","Word","朋友","Match","f","true","Formal"
"","","","","","psychophysics","321","977053","0.0-9.0-0.2-0.256","577","","f","","","","","","","","","","","","","key","f","16.6687745098036","710.8333521639864","440.27778944115613","./1_3_Stimuli/T_ambi40.png","他人","Image","他人","Match","f","true","Formal"
"","","","","","psychophysics","322","978826","0.0-9.0-0.2-0.257","617","","j","","","","","","","","","","","","","key","j","16.668552380952143","710.8333521639864","440.27778944115613","./1_3_Stimuli/T_ambi40.png","朋友","Word","他人","Mismatch","j","true","Formal"
"","","","","","psychophysics","323","980672","0.0-9.0-0.2-0.258","692","","j","","","","","","","","","","","","","key","j","16.668752293578784","710.8333521639864","440.27778944115613","./1_3_Stimuli/C_ambi40.png","他人","Word","朋友","Mismatch","j","true","Formal"
"","","","","","psychophysics","324","982397","0.0-9.0-0.2-0.259","571","","j","","","","","","","","","","","","","key","j","16.668766990291562","710.8333521639864","440.27778944115613","./1_3_Stimuli/S_ambi40.png","他人","Image","自我","Mismatch","j","true","Formal"
"","","","","","psychophysics","325","984077","0.0-9.0-0.2-0.260","517","","f","","","","","","","","","","","","","key","f","16.66772999999928","710.8333521639864","440.27778944115613","./1_3_Stimuli/C_ambi40.png","朋友","Word","朋友","Match","f","true","Formal"
"","","","","","psychophysics","326","985764","0.0-9.0-0.2-0.261","531","","f","","","","","","","","","","","","","key","f","16.66863999999943","710.8333521639864","440.27778944115613","./1_3_Stimuli/T_ambi40.png","他人","Word","他人","Match","f","true","Formal"
"","","","","","psychophysics","327","987619","0.0-9.0-0.2-0.262","697","","j","","","","","","","","","","","","","key","j","16.668072727272836","710.8333521639864","440.27778944115613","./1_3_Stimuli/C_ambi40.png","自我","Word","朋友","Mismatch","j","true","Formal"
"","","","","","psychophysics","328","989737","0.0-9.0-0.2-0.263","960","","f","","","","","","","","","","","","","key","f","16.668253968253598","710.8333521639864","440.27778944115613","./1_3_Stimuli/S_ambi40.png","自我","Word","自我","Match","f","true","Formal"
"","","","","","psychophysics","329","991467","0.0-9.0-0.2-0.264","574","","j","","","","","","","","","","","","","key","j","16.669225490196634","710.8333521639864","440.27778944115613","./1_3_Stimuli/T_ambi40.png","朋友","Word","他人","Mismatch","j","true","Formal"
"","","","","","psychophysics","330","993326","0.0-9.0-0.2-0.265","706","","j","","","","","","","","","","","","","key","j","16.6686181818188","710.8333521639864","440.27778944115613","./1_3_Stimuli/S_ambi40.png","朋友","Image","自我","Mismatch","j","true","Formal"
"","","","","","psychophysics","331","995052","0.0-9.0-0.2-0.266","575","","j","","","","","","","","","","","","","key","j","16.66889215686345","710.8333521639864","440.27778944115613","./1_3_Stimuli/T_ambi40.png","朋友","Image","他人","Mismatch","j","true","Formal"
"","","","","","psychophysics","332","996857","0.0-9.0-0.2-0.267","650","","f","","","","","","","","","","","","","key","f","16.66771962616819","710.8333521639864","440.27778944115613","./1_3_Stimuli/T_ambi40.png","他人","Word","他人","Match","f","true","Formal"
"","","","","","psychophysics","333","998661","0.0-9.0-0.2-0.268","651","","f","","","","","","","","","","","","","key","f","16.668682242990645","710.8333521639864","440.27778944115613","./1_3_Stimuli/T_ambi40.png","他人","Word","他人","Match","f","true","Formal"
"","","","","","psychophysics","334","1000384","0.0-9.0-0.2-0.269","558","","f","","","","","","","","","","","","","key","f","16.668568627451155","710.8333521639864","440.27778944115613","./1_3_Stimuli/C_ambi40.png","朋友","Image","朋友","Match","f","true","Formal"
"","","","","","psychophysics","335","1002180","0.0-9.0-0.2-0.270","635","","j","","","","","","","","","","","","","key","j","16.667915887851052","710.8333521639864","440.27778944115613","./1_3_Stimuli/T_ambi40.png","自我","Image","他人","Mismatch","j","true","Formal"
"","","","","","psychophysics","336","1003999","0.0-9.0-0.2-0.271","661","","j","","","","","","","","","","","","","key","j","16.667712962963076","710.8333521639864","440.27778944115613","./1_3_Stimuli/C_ambi40.png","自我","Word","朋友","Mismatch","j","true","Formal"
"","","","","","psychophysics","337","1005848","0.0-9.0-0.2-0.272","689","","j","","","","","","","","","","","","","key","j","16.668499999999238","710.8333521639864","440.27778944115613","./1_3_Stimuli/C_ambi40.png","他人","Image","朋友","Mismatch","j","true","Formal"
"","","","","","psychophysics","338","1007573","0.0-9.0-0.2-0.273","572","","f","","","","","","","","","","","","","key","f","16.668137254902188","710.8333521639864","440.27778944115613","./1_3_Stimuli/S_ambi40.png","自我","Image","自我","Match","f","true","Formal"
"","","","","","psychophysics","339","1009287","0.0-9.0-0.2-0.274","559","","j","","","","","","","","","","","","","key","j","16.668127450980155","710.8333521639864","440.27778944115613","./1_3_Stimuli/T_ambi40.png","自我","Word","他人","Mismatch","j","true","Formal"
"","","","","","psychophysics","340","1011001","0.0-9.0-0.2-0.275","556","","f","","","","","","","","","","","","","key","f","16.668598039214974","710.8333521639864","440.27778944115613","./1_3_Stimuli/S_ambi40.png","自我","Word","自我","Match","f","true","Formal"
"","","","","","psychophysics","341","1012865","0.0-9.0-0.2-0.276","704","","j","","","","","","","","","","","","","key","j","16.668801801801482","710.8333521639864","440.27778944115613","./1_3_Stimuli/C_ambi40.png","他人","Word","朋友","Mismatch","j","true","Formal"
"","","","","","psychophysics","342","1014615","0.0-9.0-0.2-0.277","593","","f","","","","","","","","","","","","","key","f","16.668490384615815","710.8333521639864","440.27778944115613","./1_3_Stimuli/S_ambi40.png","自我","Word","自我","Match","f","true","Formal"
"","","","","","psychophysics","343","1016354","0.0-9.0-0.2-0.278","588","","j","","","","","","","","","","","","","key","j","16.668873786407488","710.8333521639864","440.27778944115613","./1_3_Stimuli/S_ambi40.png","他人","Word","自我","Mismatch","j","true","Formal"
"","","","","","psychophysics","344","1018163","0.0-9.0-0.2-0.279","652","","f","","","","","","","","","","","","","key","f","16.66910185185218","710.8333521639864","440.27778944115613","./1_3_Stimuli/T_ambi40.png","他人","Image","他人","Match","f","true","Formal"
"","","","","","psychophysics","345","1019767","0.0-9.0-0.2-0.280","442","","f","","","","","","","","","","","","","key","f","16.66821052631682","710.8333521639864","440.27778944115613","./1_3_Stimuli/C_ambi40.png","朋友","Word","朋友","Match","f","true","Formal"
"","","","","","psychophysics","346","1021485","0.0-9.0-0.2-0.281","556","","f","","","","","","","","","","","","","key","f","16.667705882353225","710.8333521639864","440.27778944115613","./1_3_Stimuli/C_ambi40.png","朋友","Word","朋友","Match","f","true","Formal"
"","","","","","psychophysics","347","1023156","0.0-9.0-0.2-0.282","510","","f","","","","","","","","","","","","","key","f","16.668595959595876","710.8333521639864","440.27778944115613","./1_3_Stimuli/C_ambi40.png","朋友","Image","朋友","Match","f","true","Formal"
"","","","","","psychophysics","348","1025160","0.0-9.0-0.2-0.283","847","","j","","","","","","","","","","","","","key","j","16.66869491525389","710.8333521639864","440.27778944115613","./1_3_Stimuli/C_ambi40.png","自我","Image","朋友","Mismatch","j","true","Formal"
"","","","","","psychophysics","349","1026978","0.0-9.0-0.2-0.284","665","","j","","","","","","","","","","","","","key","j","16.667850467289373","710.8333521639864","440.27778944115613","./1_3_Stimuli/S_ambi40.png","朋友","Word","自我","Mismatch","j","true","Formal"
"","","","","","psychophysics","350","1028970","0.0-9.0-0.2-0.285","840","","f","","","","","","","","","","","","","key","f","16.667796610169887","710.8333521639864","440.27778944115613","./1_3_Stimuli/S_ambi40.png","自我","Image","自我","Match","f","true","Formal"
"","","","","","psychophysics","351","1030663","0.0-9.0-0.2-0.286","536","","j","","","","","","","","","","","","","key","j","16.668310000000055","710.8333521639864","440.27778944115613","./1_3_Stimuli/S_ambi40.png","他人","Image","自我","Mismatch","j","true","Formal"
"","","","","","psychophysics","352","1032352","0.0-9.0-0.2-0.287","538","","f","","","","","","","","","","","","","key","f","16.66863000000012","710.8333521639864","440.27778944115613","./1_3_Stimuli/T_ambi40.png","他人","Image","他人","Match","f","true","Formal"
"","","","","","psychophysics","353","1034056","0.0-9.0-0.2-0.288","541","","j","","","","","","","","","","","","","key","j","16.668069306930462","710.8333521639864","440.27778944115613","./1_3_Stimuli/T_ambi40.png","朋友","Word","他人","Mismatch","j","true","Formal"
"","","","","","psychophysics","354","1036394","0.0-9.0-0.2-0.289","1179","","f","","","","","","","","","","","","","key","f","16.668597122301723","710.8333521639864","440.27778944115613","./1_3_Stimuli/T_ambi40.png","他人","Word","他人","Match","f","true","Formal"
"","","","","","psychophysics","355","1038200","0.0-9.0-0.2-0.290","651","","j","","","","","","","","","","","","","key","j","16.666925233645173","710.8333521639864","440.27778944115613","./1_3_Stimuli/C_ambi40.png","自我","Word","朋友","Mismatch","j","true","Formal"
"","","","","","psychophysics","356","1039921","0.0-9.0-0.2-0.291","562","","j","","","","","","","","","","","","","key","j","16.66834313725578","710.8333521639864","440.27778944115613","./1_3_Stimuli/T_ambi40.png","朋友","Image","他人","Mismatch","j","true","Formal"
"","","","","","psychophysics","357","1041703","0.0-9.0-0.2-0.292","626","","f","","","","","","","","","","","","","key","f","16.668415094339203","710.8333521639864","440.27778944115613","./1_3_Stimuli/C_ambi40.png","朋友","Image","朋友","Match","f","true","Formal"
"","","","","","psychophysics","358","1043441","0.0-9.0-0.2-0.293","576","","j","","","","","","","","","","","","","key","j","16.66821359223302","710.8333521639864","440.27778944115613","./1_3_Stimuli/C_ambi40.png","他人","Image","朋友","Mismatch","j","true","Formal"
"","","","","","psychophysics","359","1045307","0.0-9.0-0.2-0.294","709","","f","","","","","","","","","","","","","key","f","16.66890990990948","710.8333521639864","440.27778944115613","./1_3_Stimuli/C_ambi40.png","朋友","Word","朋友","Match","f","true","Formal"
"","","","","","psychophysics","360","1047078","0.0-9.0-0.2-0.295","613","","f","","","","","","","","","","","","","key","f","16.668895238094652","710.8333521639864","440.27778944115613","./1_3_Stimuli/T_ambi40.png","他人","Image","他人","Match","f","true","Formal"
"","","","","","psychophysics","361","1048820","0.0-9.0-0.2-0.296","587","","f","","","","","","","","","","","","","key","f","16.668932038835177","710.8333521639864","440.27778944115613","./1_3_Stimuli/S_ambi40.png","自我","Image","自我","Match","f","true","Formal"
"","","","","","psychophysics","362","1050528","0.0-9.0-0.2-0.297","546","","f","","","","","","","","","","","","","key","f","16.66813861386214","710.8333521639864","440.27778944115613","./1_3_Stimuli/S_ambi40.png","自我","Image","自我","Match","f","true","Formal"
"","","","","","psychophysics","363","1052168","0.0-9.0-0.2-0.298","485","","f","","","","","","","","","","","","","key","f","16.66833673469361","710.8333521639864","440.27778944115613","./1_3_Stimuli/S_ambi40.png","自我","Word","自我","Match","f","true","Formal"
"","","","","","psychophysics","364","1053912","0.0-9.0-0.2-0.299","581","","j","","","","","","","","","","","","","key","j","16.668553398056318","710.8333521639864","440.27778944115613","./1_3_Stimuli/S_ambi40.png","他人","Image","自我","Mismatch","j","true","Formal"
"","","","","","psychophysics","365","1055602","0.0-9.0-0.2-0.300","535","","f","","","","","","","","","","","","","key","f","16.668980000000445","710.8333521639864","440.27778944115613","./1_3_Stimuli/C_ambi40.png","朋友","Image","朋友","Match","f","true","Formal"
"","","","","","psychophysics","366","1057407","0.0-9.0-0.2-0.301","642","","j","","","","","","","","","","","","","key","j","16.66828971962601","710.8333521639864","440.27778944115613","./1_3_Stimuli/T_ambi40.png","自我","Word","他人","Mismatch","j","true","Formal"
"","","","","","psychophysics","367","1059356","0.0-9.0-0.2-0.302","791","","j","","","","","","","","","","","","","key","j","16.66803478260889","710.8333521639864","440.27778944115613","./1_3_Stimuli/S_ambi40.png","他人","Word","自我","Mismatch","j","true","Formal"
"","","","","","psychophysics","368","1061090","0.0-9.0-0.2-0.303","579","","f","","","","","","","","","","","","","key","f","16.668106796118224","710.8333521639864","440.27778944115613","./1_3_Stimuli/S_ambi40.png","自我","Word","自我","Match","f","true","Formal"
"","","","","","psychophysics","369","1062886","0.0-9.0-0.2-0.304","642","","j","","","","","","","","","","","","","key","j","16.66794392523556","710.8333521639864","440.27778944115613","./1_3_Stimuli/T_ambi40.png","自我","Image","他人","Mismatch","j","true","Formal"
"","","","","","psychophysics","370","1064643","0.0-9.0-0.2-0.305","593","","j","","","","","","","","","","","","","key","j","16.668317307691233","710.8333521639864","440.27778944115613","./1_3_Stimuli/C_ambi40.png","他人","Word","朋友","Mismatch","j","true","Formal"
"","","","","","psychophysics","371","1066495","0.0-9.0-0.2-0.306","699","","f","","","","","","","","","","","","","key","f","16.667945454546928","710.8333521639864","440.27778944115613","./1_3_Stimuli/T_ambi40.png","他人","Image","他人","Match","f","true","Formal"
"","","","","","psychophysics","372","1068409","0.0-9.0-0.2-0.307","758","","j","","","","","","","","","","","","","key","j","16.66864601769938","710.8333521639864","440.27778944115613","./1_3_Stimuli/C_ambi40.png","自我","Image","朋友","Mismatch","j","true","Formal"
"","","","","","psychophysics","373","1070182","0.0-9.0-0.2-0.308","615","","j","","","","","","","","","","","","","key","j","16.668580952379852","710.8333521639864","440.27778944115613","./1_3_Stimuli/S_ambi40.png","朋友","Word","自我","Mismatch","j","true","Formal"
"","","","","","psychophysics","374","1072027","0.0-9.0-0.2-0.309","694","","j","","","","","","","","","","","","","key","j","16.667990825687955","710.8333521639864","440.27778944115613","./1_3_Stimuli/S_ambi40.png","朋友","Image","自我","Mismatch","j","true","Formal"
"","","","","","psychophysics","375","1073666","0.0-9.0-0.2-0.310","480","","f","","","","","","","","","","","","","key","f","16.668340206184645","710.8333521639864","440.27778944115613","./1_3_Stimuli/C_ambi40.png","朋友","Word","朋友","Match","f","true","Formal"
"","","","","","psychophysics","376","1075526","0.0-9.0-0.2-0.311","709","","f","","","","","","","","","","","","","key","f","16.668636363636786","710.8333521639864","440.27778944115613","./1_3_Stimuli/T_ambi40.png","他人","Word","他人","Match","f","true","Formal"
"","","","","","psychophysics","377","1077421","0.0-9.0-0.2-0.312","735","","j","","","","","","","","","","","","","key","j","16.66827433628434","710.8333521639864","440.27778944115613","./1_3_Stimuli/S_ambi40.png","自我","Word","自我","Match","f","false","Formal"
"","","","","","psychophysics","378","1079165","0.0-9.0-0.2-0.313","590","","f","","","","","","","","","","","","","key","f","16.668708737865","710.8333521639864","440.27778944115613","./1_3_Stimuli/C_ambi40.png","朋友","Image","朋友","Match","f","true","Formal"
"","","","","","psychophysics","379","1080934","0.0-9.0-0.2-0.314","616","","j","","","","","","","","","","","","","key","j","16.668419047620237","710.8333521639864","440.27778944115613","./1_3_Stimuli/T_ambi40.png","自我","Image","他人","Mismatch","j","true","Formal"
"","","","","","psychophysics","380","1082770","0.0-9.0-0.2-0.315","683","","j","","","","","","","","","","","","","key","j","16.668412844037398","710.8333521639864","440.27778944115613","./1_3_Stimuli/T_ambi40.png","朋友","Image","他人","Mismatch","j","true","Formal"
