"success","timeout","failed_images","failed_audio","failed_video","trial_type","trial_index","time_elapsed","internal_node_id","rt","stimulus","response","value","item_width_mm","item_height_mm","item_width_px","px2mm","view_dist_mm","item_width_deg","px2deg","scale_factor","win_width_deg","win_height_deg","view_history","response_type","key_press","avg_frame_time","center_x","center_y","image","word","target","valence","matchness","correct_response","correct","exp_condition"
"true","false","[]","[]","[]","preload","0","550","0.0-0.0","","","","","","","","","","","","","","","","","","","","","","","","","","","",""
"","","","","","html-keyboard-response","1","11381","0.0-1.0","10831","
     <p>您好，欢迎参加本次实验。</p>
     <p>为充分保障您的权利，请确保您已经知晓并同意《参与实验同意书》以及《数据公开知情同意书》。</p>
     <p>如果您未见过上述内容，请咨询实验员。</p>
     <p>如果您选择继续实验，则表示您已经清楚两份知情同意书的内容并同意。</p>
     <p> <div style = ""color: green""><按任意键至下页></div> </p>
     "," ","","","","","","","","","","","","","","","","","","","","","","","","",""
"","","","","","html-keyboard-response","2","15236","0.0-2.0-0.0","3854","
      <p>本实验首先需要您填写一些基本个人信息。</p>
      <p> <div style = ""color: green""><按任意键至下页></div></p>
      ","shift","","","","","","","","","","","","","","","","","","","","","","","","",""
"","","","","","call-function","3","15236","0.0-2.0-1.0","","","","","","","","","","","","","","","","","","","","","","","","","","","",""
"","","","","","survey-html-form","4","29927","0.0-2.0-2.0","14689","","{""Q0"":""1004""}","","","","","","","","","","","","","","","","","","","","","","","","",""
"","","","","","html-button-response","5","31063","0.0-2.0-3.0","1135","<p style = 'color : white'>您的性别</p>","0","","","","","","","","","","","","","","","","","","","","","","","","",""
"","","","","","survey-html-form","6","40131","0.0-2.0-4.0","9068","","{""Q0"":""2004""}","","","","","","","","","","","","","","","","","","","","","","","","",""
"","","","","","survey-html-form","7","42887","0.0-2.0-5.0","2754","","{""Q0"":""5""}","","","","","","","","","","","","","","","","","","","","","","","","",""
"","","","","","virtual-chinrest","8","186506","0.0-3.0","143619","","","","85.6","53.98","306.5732275837505","3.5793628141977156","799.13","6.13146455167501","50","1.2460318306680715","29.76","15.8","","","","","","","","","","","","","",""
"true","","","","","fullscreen","9","189728","0.0-4.0","","","","","","","","","","","","","","","","","","","","","","","","","","","",""
"","","","","","instructions","10","346642","0.0-5.0","156911","","","","","","","","","","","","","","[{""page_index"":0,""viewing_time"":29153},{""page_index"":1,""viewing_time"":56059},{""page_index"":0,""viewing_time"":4916},{""page_index"":1,""viewing_time"":30590},{""page_index"":2,""viewing_time"":28023},{""page_index"":3,""viewing_time"":8168}]","","","","","","","","","","","","",""
"","","","","","html-keyboard-response","11","350294","0.0-6.0","null","<count-down title=""""></count-down>","null","","","","","","","","","","","","","","","","","","","","","","","","",""
"","","","","","psychophysics","12","353008","0.0-7.0-0.0-0.0","null","","null","","","","","","","","","","","","","key","null","16.66586335403707","853.3333333333334","476","./1_3_Stimuli/T_ambi40.png","他人","Word","他人","Match","f","false","Practice"
"","","","","","html-keyboard-response","13","353310","0.0-7.0-0.0-1.0","null","<span class='add_' style='color:yellow; font-size: 70px;'> 太慢! </span>","null","","","","","","","","","","","","","","","","","","","","","","","","","feedback"
"","","","","","psychophysics","14","356017","0.0-7.0-0.0-0.1","null","","null","","","","","","","","","","","","","key","null","16.665645962732885","853.3333333333334","476","./1_3_Stimuli/T_ambi40.png","朋友","Image","他人","Mismatch","j","false","Practice"
"","","","","","html-keyboard-response","15","356330","0.0-7.0-0.0-1.1","null","<span class='add_' style='color:yellow; font-size: 70px;'> 太慢! </span>","null","","","","","","","","","","","","","","","","","","","","","","","","","feedback"
"","","","","","psychophysics","16","359038","0.0-7.0-0.0-0.2","null","","null","","","","","","","","","","","","","key","null","16.665857142857014","853.3333333333334","476","./1_3_Stimuli/C_ambi40.png","自我","Word","朋友","Mismatch","j","false","Practice"
"","","","","","html-keyboard-response","17","359349","0.0-7.0-0.0-1.2","null","<span class='add_' style='color:yellow; font-size: 70px;'> 太慢! </span>","null","","","","","","","","","","","","","","","","","","","","","","","","","feedback"
"","","","","","psychophysics","18","362058","0.0-7.0-0.0-0.3","null","","null","","","","","","","","","","","","","key","null","16.66454658385074","853.3333333333334","476","./1_3_Stimuli/T_ambi40.png","自我","Image","他人","Mismatch","j","false","Practice"
"","","","","","html-keyboard-response","19","362360","0.0-7.0-0.0-1.3","null","<span class='add_' style='color:yellow; font-size: 70px;'> 太慢! </span>","null","","","","","","","","","","","","","","","","","","","","","","","","","feedback"
"","","","","","psychophysics","20","365068","0.0-7.0-0.0-0.4","null","","null","","","","","","","","","","","","","key","null","16.663919254658406","853.3333333333334","476","./1_3_Stimuli/T_ambi40.png","他人","Image","他人","Match","f","false","Practice"
"","","","","","html-keyboard-response","21","365384","0.0-7.0-0.0-1.4","null","<span class='add_' style='color:yellow; font-size: 70px;'> 太慢! </span>","null","","","","","","","","","","","","","","","","","","","","","","","","","feedback"
"","","","","","psychophysics","22","368088","0.0-7.0-0.0-0.5","null","","null","","","","","","","","","","","","","key","null","16.666372670807228","853.3333333333334","476","./1_3_Stimuli/S_ambi40.png","自我","Image","自我","Match","f","false","Practice"
"","","","","","html-keyboard-response","23","368397","0.0-7.0-0.0-1.5","null","<span class='add_' style='color:yellow; font-size: 70px;'> 太慢! </span>","null","","","","","","","","","","","","","","","","","","","","","","","","","feedback"
"","","","","","psychophysics","24","371100","0.0-7.0-0.0-0.6","null","","null","","","","","","","","","","","","","key","null","16.66103726708054","853.3333333333334","476","./1_3_Stimuli/S_ambi40.png","他人","Image","自我","Mismatch","j","false","Practice"
"","","","","","html-keyboard-response","25","371415","0.0-7.0-0.0-1.6","null","<span class='add_' style='color:yellow; font-size: 70px;'> 太慢! </span>","null","","","","","","","","","","","","","","","","","","","","","","","","","feedback"
"","","","","","psychophysics","26","374125","0.0-7.0-0.0-0.7","null","","null","","","","","","","","","","","","","key","null","16.66766459627333","853.3333333333334","476","./1_3_Stimuli/C_ambi40.png","朋友","Word","朋友","Match","f","false","Practice"
"","","","","","html-keyboard-response","27","374436","0.0-7.0-0.0-1.7","null","<span class='add_' style='color:yellow; font-size: 70px;'> 太慢! </span>","null","","","","","","","","","","","","","","","","","","","","","","","","","feedback"
"","","","","","psychophysics","28","377142","0.0-7.0-0.0-0.8","null","","null","","","","","","","","","","","","","key","null","16.66572670807472","853.3333333333334","476","./1_3_Stimuli/C_ambi40.png","自我","Image","朋友","Mismatch","j","false","Practice"
"","","","","","html-keyboard-response","29","377456","0.0-7.0-0.0-1.8","null","<span class='add_' style='color:yellow; font-size: 70px;'> 太慢! </span>","null","","","","","","","","","","","","","","","","","","","","","","","","","feedback"
"","","","","","psychophysics","30","380159","0.0-7.0-0.0-0.9","null","","null","","","","","","","","","","","","","key","null","16.666540372670593","853.3333333333334","476","./1_3_Stimuli/C_ambi40.png","朋友","Image","朋友","Match","f","false","Practice"
"","","","","","html-keyboard-response","31","380463","0.0-7.0-0.0-1.9","null","<span class='add_' style='color:yellow; font-size: 70px;'> 太慢! </span>","null","","","","","","","","","","","","","","","","","","","","","","","","","feedback"
"","","","","","psychophysics","32","383175","0.0-7.0-0.0-0.10","null","","null","","","","","","","","","","","","","key","null","16.66587577639755","853.3333333333334","476","./1_3_Stimuli/T_ambi40.png","朋友","Word","他人","Mismatch","j","false","Practice"
"","","","","","html-keyboard-response","33","383486","0.0-7.0-0.0-1.10","null","<span class='add_' style='color:yellow; font-size: 70px;'> 太慢! </span>","null","","","","","","","","","","","","","","","","","","","","","","","","","feedback"
"","","","","","psychophysics","34","385888","0.0-7.0-0.0-0.11","1246","","f","","","","","","","","","","","","","key","f","16.666223776223905","853.3333333333334","476","./1_3_Stimuli/T_ambi40.png","他人","Word","他人","Match","f","true","Practice"
"","","","","","html-keyboard-response","35","386189","0.0-7.0-0.0-1.11","null","<span style='color:GreenYellow; font-size: 70px;'>正确! </span>","null","","","","","","","","","","","","","","","","","","","","","","","","","feedback"
"","","","","","psychophysics","36","387486","0.0-7.0-0.0-0.12","144","","f","","","","","","","","","","","","","key","f","16.667155844155644","853.3333333333334","476","./1_3_Stimuli/S_ambi40.png","朋友","Image","自我","Mismatch","j","false","Practice"
"","","","","","html-keyboard-response","37","387796","0.0-7.0-0.0-1.12","null","<span style='color:yellow; font-size: 70px;'>过快! </span>","null","","","","","","","","","","","","","","","","","","","","","","","","","feedback"
"","","","","","psychophysics","38","390499","0.0-7.0-0.0-0.13","null","","null","","","","","","","","","","","","","key","null","16.668732919254463","853.3333333333334","476","./1_3_Stimuli/C_ambi40.png","他人","Word","朋友","Mismatch","j","false","Practice"
"","","","","","html-keyboard-response","39","390810","0.0-7.0-0.0-1.13","null","<span class='add_' style='color:yellow; font-size: 70px;'> 太慢! </span>","null","","","","","","","","","","","","","","","","","","","","","","","","","feedback"
"","","","","","psychophysics","40","393523","0.0-7.0-0.0-0.14","null","","null","","","","","","","","","","","","","key","null","16.66624223602493","853.3333333333334","476","./1_3_Stimuli/S_ambi40.png","朋友","Word","自我","Mismatch","j","false","Practice"
"","","","","","html-keyboard-response","41","393836","0.0-7.0-0.0-1.14","null","<span class='add_' style='color:yellow; font-size: 70px;'> 太慢! </span>","null","","","","","","","","","","","","","","","","","","","","","","","","","feedback"
"","","","","","psychophysics","42","396542","0.0-7.0-0.0-0.15","null","","null","","","","","","","","","","","","","key","null","16.66568944099401","853.3333333333334","476","./1_3_Stimuli/T_ambi40.png","他人","Image","他人","Match","f","false","Practice"
"","","","","","html-keyboard-response","43","396848","0.0-7.0-0.0-1.15","null","<span class='add_' style='color:yellow; font-size: 70px;'> 太慢! </span>","null","","","","","","","","","","","","","","","","","","","","","","","","","feedback"
"","","","","","psychophysics","44","399558","0.0-7.0-0.0-0.16","null","","null","","","","","","","","","","","","","key","null","16.665820987654396","853.3333333333334","476","./1_3_Stimuli/C_ambi40.png","朋友","Word","朋友","Match","f","false","Practice"
"","","","","","html-keyboard-response","45","399873","0.0-7.0-0.0-1.16","null","<span class='add_' style='color:yellow; font-size: 70px;'> 太慢! </span>","null","","","","","","","","","","","","","","","","","","","","","","","","","feedback"
"","","","","","psychophysics","46","402580","0.0-7.0-0.0-0.17","null","","null","","","","","","","","","","","","","key","null","16.66621739130434","853.3333333333334","476","./1_3_Stimuli/T_ambi40.png","自我","Word","他人","Mismatch","j","false","Practice"
"","","","","","html-keyboard-response","47","402892","0.0-7.0-0.0-1.17","null","<span class='add_' style='color:yellow; font-size: 70px;'> 太慢! </span>","null","","","","","","","","","","","","","","","","","","","","","","","","","feedback"
"","","","","","psychophysics","48","405605","0.0-7.0-0.0-0.18","null","","null","","","","","","","","","","","","","key","null","16.66568322981359","853.3333333333334","476","./1_3_Stimuli/C_ambi40.png","朋友","Image","朋友","Match","f","false","Practice"
"","","","","","html-keyboard-response","49","405916","0.0-7.0-0.0-1.18","null","<span class='add_' style='color:yellow; font-size: 70px;'> 太慢! </span>","null","","","","","","","","","","","","","","","","","","","","","","","","","feedback"
"","","","","","psychophysics","50","408623","0.0-7.0-0.0-0.19","null","","null","","","","","","","","","","","","","key","null","16.66646583850918","853.3333333333334","476","./1_3_Stimuli/S_ambi40.png","他人","Word","自我","Mismatch","j","false","Practice"
"","","","","","html-keyboard-response","51","408935","0.0-7.0-0.0-1.19","null","<span class='add_' style='color:yellow; font-size: 70px;'> 太慢! </span>","null","","","","","","","","","","","","","","","","","","","","","","","","","feedback"
"","","","","","psychophysics","52","411641","0.0-7.0-0.0-0.20","null","","null","","","","","","","","","","","","","key","null","16.66591304347826","853.3333333333334","476","./1_3_Stimuli/S_ambi40.png","自我","Word","自我","Match","f","false","Practice"
"","","","","","html-keyboard-response","53","411947","0.0-7.0-0.0-1.20","null","<span class='add_' style='color:yellow; font-size: 70px;'> 太慢! </span>","null","","","","","","","","","","","","","","","","","","","","","","","","","feedback"
"","","","","","psychophysics","54","414657","0.0-7.0-0.0-0.21","null","","null","","","","","","","","","","","","","key","null","16.665850931676957","853.3333333333334","476","./1_3_Stimuli/C_ambi40.png","他人","Image","朋友","Mismatch","j","false","Practice"
"","","","","","html-keyboard-response","55","414960","0.0-7.0-0.0-1.21","null","<span class='add_' style='color:yellow; font-size: 70px;'> 太慢! </span>","null","","","","","","","","","","","","","","","","","","","","","","","","","feedback"
"","","","","","psychophysics","56","417671","0.0-7.0-0.0-0.22","null","","null","","","","","","","","","","","","","key","null","16.665148148148244","853.3333333333334","476","./1_3_Stimuli/S_ambi40.png","自我","Word","自我","Match","f","false","Practice"
"","","","","","html-keyboard-response","57","417982","0.0-7.0-0.0-1.22","null","<span class='add_' style='color:yellow; font-size: 70px;'> 太慢! </span>","null","","","","","","","","","","","","","","","","","","","","","","","","","feedback"
"","","","","","psychophysics","58","420691","0.0-7.0-0.0-0.23","null","","null","","","","","","","","","","","","","key","null","16.666322981366406","853.3333333333334","476","./1_3_Stimuli/S_ambi40.png","自我","Image","自我","Match","f","false","Practice"
"","","","","","html-keyboard-response","59","420992","0.0-7.0-0.0-1.23","null","<span class='add_' style='color:yellow; font-size: 70px;'> 太慢! </span>","null","","","","","","","","","","","","","","","","","","","","","","","","","feedback"
"","","","","","html-keyboard-response","60","442013","0.0-7.0-1.0-0.0","21020","<style>.context{color:white; font-size: 35px; line-height:40px}</style>                        <div><p class='context'>您正确回答了4% 的试次。</p><p class='context'>您的平均反应时为1246毫秒。</p><p> <div style = 'color: green'><按空格键至下页></div></p>"," ","","","","","","","","","","","","","","","","","","","","","","","","",""
"","","","","","instructions","61","513378","0.0-7.0-1.0-1.0","71363","","","","","","","","","","","","","","[{""page_index"":0,""viewing_time"":3649},{""page_index"":1,""viewing_time"":65160},{""page_index"":2,""viewing_time"":2554}]","","","","","","","","","","","","",""
"","","","","","psychophysics","62","516086","0.0-7.1-0.1-0.24","null","","null","","","","","","","","","","","","","key","null","16.66664596273266","853.3333333333334","476","./1_3_Stimuli/S_ambi40.png","他人","Image","自我","Mismatch","j","false","Practice"
"","","","","","html-keyboard-response","63","516402","0.0-7.1-0.1-1.24","null","<span class='add_' style='color:yellow; font-size: 70px;'> 太慢! </span>","null","","","","","","","","","","","","","","","","","","","","","","","","","feedback"
"","","","","","psychophysics","64","517636","0.0-7.1-0.1-0.25","83","","f","","","","","","","","","","","","","key","f","16.665930555555356","853.3333333333334","476","./1_3_Stimuli/T_ambi40.png","自我","Image","他人","Mismatch","j","false","Practice"
"","","","","","html-keyboard-response","65","517940","0.0-7.1-0.1-1.25","null","<span style='color:yellow; font-size: 70px;'>过快! </span>","null","","","","","","","","","","","","","","","","","","","","","","","","","feedback"
"","","","","","psychophysics","66","519341","0.0-7.1-0.1-0.26","240","","j","","","","","","","","","","","","","key","j","16.667060240964314","853.3333333333334","476","./1_3_Stimuli/T_ambi40.png","自我","Word","他人","Mismatch","j","true","Practice"
"","","","","","html-keyboard-response","67","519647","0.0-7.1-0.1-1.26","null","<span style='color:GreenYellow; font-size: 70px;'>正确! </span>","null","","","","","","","","","","","","","","","","","","","","","","","","","feedback"
"","","","","","psychophysics","68","522352","0.0-7.1-0.1-0.27","null","","null","","","","","","","","","","","","","key","null","16.666111801242273","853.3333333333334","476","./1_3_Stimuli/C_ambi40.png","朋友","Word","朋友","Match","f","false","Practice"
"","","","","","html-keyboard-response","69","522660","0.0-7.1-0.1-1.27","null","<span class='add_' style='color:yellow; font-size: 70px;'> 太慢! </span>","null","","","","","","","","","","","","","","","","","","","","","","","","","feedback"
"","","","","","psychophysics","70","523929","0.0-7.1-0.1-0.28","110","","f","","","","","","","","","","","","","key","f","16.66652000000002","853.3333333333334","476","./1_3_Stimuli/T_ambi40.png","朋友","Word","他人","Mismatch","j","false","Practice"
"","","","","","html-keyboard-response","71","524243","0.0-7.1-0.1-1.28","null","<span style='color:yellow; font-size: 70px;'>过快! </span>","null","","","","","","","","","","","","","","","","","","","","","","","","","feedback"
"","","","","","psychophysics","72","525499","0.0-7.1-0.1-0.29","101","","j","","","","","","","","","","","","","key","j","16.66663513513521","853.3333333333334","476","./1_3_Stimuli/T_ambi40.png","他人","Word","他人","Match","f","false","Practice"
"","","","","","html-keyboard-response","73","525803","0.0-7.1-0.1-1.29","null","<span style='color:yellow; font-size: 70px;'>过快! </span>","null","","","","","","","","","","","","","","","","","","","","","","","","","feedback"
"","","","","","psychophysics","74","527080","0.0-7.1-0.1-0.30","126","","f","","","","","","","","","","","","","key","f","16.665893333333855","853.3333333333334","476","./1_3_Stimuli/T_ambi40.png","他人","Word","他人","Match","f","true","Practice"
"","","","","","html-keyboard-response","75","527393","0.0-7.1-0.1-1.30","null","<span style='color:yellow; font-size: 70px;'>过快! </span>","null","","","","","","","","","","","","","","","","","","","","","","","","","feedback"
"","","","","","psychophysics","76","528588","0.0-7.1-0.1-0.31","39","","f","","","","","","","","","","","","","key","f","16.66704225352257","853.3333333333334","476","./1_3_Stimuli/S_ambi40.png","自我","Image","自我","Match","f","true","Practice"
"","","","","","html-keyboard-response","77","528892","0.0-7.1-0.1-1.31","null","<span style='color:yellow; font-size: 70px;'>过快! </span>","null","","","","","","","","","","","","","","","","","","","","","","","","","feedback"
"","","","","","psychophysics","78","530122","0.0-7.1-0.1-0.32","76","","j","","","","","","","","","","","","","key","j","16.666616438355373","853.3333333333334","476","./1_3_Stimuli/T_ambi40.png","他人","Image","他人","Match","f","false","Practice"
"","","","","","html-keyboard-response","79","530436","0.0-7.1-0.1-1.32","null","<span style='color:yellow; font-size: 70px;'>过快! </span>","null","","","","","","","","","","","","","","","","","","","","","","","","","feedback"
"","","","","","psychophysics","80","533147","0.0-7.1-0.1-0.33","null","","null","","","","","","","","","","","","","key","null","16.66593788819885","853.3333333333334","476","./1_3_Stimuli/C_ambi40.png","他人","Word","朋友","Mismatch","j","false","Practice"
"","","","","","html-keyboard-response","81","533461","0.0-7.1-0.1-1.33","null","<span class='add_' style='color:yellow; font-size: 70px;'> 太慢! </span>","null","","","","","","","","","","","","","","","","","","","","","","","","","feedback"
"","","","","","psychophysics","82","534699","0.0-7.1-0.1-0.34","85","","j","","","","","","","","","","","","","key","j","16.66673972602768","853.3333333333334","476","./1_3_Stimuli/S_ambi40.png","他人","Word","自我","Mismatch","j","true","Practice"
"","","","","","html-keyboard-response","83","535006","0.0-7.1-0.1-1.34","null","<span style='color:yellow; font-size: 70px;'>过快! </span>","null","","","","","","","","","","","","","","","","","","","","","","","","","feedback"
"","","","","","psychophysics","84","536288","0.0-7.1-0.1-0.35","130","","f","","","","","","","","","","","","","key","f","16.666013157895865","853.3333333333334","476","./1_3_Stimuli/C_ambi40.png","朋友","Image","朋友","Match","f","true","Practice"
"","","","","","html-keyboard-response","85","536595","0.0-7.1-0.1-1.35","null","<span style='color:yellow; font-size: 70px;'>过快! </span>","null","","","","","","","","","","","","","","","","","","","","","","","","","feedback"
"","","","","","psychophysics","86","537889","0.0-7.1-0.1-0.36","137","","j","","","","","","","","","","","","","key","j","16.667688311688458","853.3333333333334","476","./1_3_Stimuli/S_ambi40.png","自我","Image","自我","Match","f","false","Practice"
"","","","","","html-keyboard-response","87","538202","0.0-7.1-0.1-1.36","null","<span style='color:yellow; font-size: 70px;'>过快! </span>","null","","","","","","","","","","","","","","","","","","","","","","","","","feedback"
"","","","","","psychophysics","88","540905","0.0-7.1-0.1-0.37","null","","null","","","","","","","","","","","","","key","null","16.666043478260917","853.3333333333334","476","./1_3_Stimuli/T_ambi40.png","他人","Image","他人","Match","f","false","Practice"
"","","","","","html-keyboard-response","89","541219","0.0-7.1-0.1-1.37","null","<span class='add_' style='color:yellow; font-size: 70px;'> 太慢! </span>","null","","","","","","","","","","","","","","","","","","","","","","","","","feedback"
"","","","","","psychophysics","90","542604","0.0-7.1-0.1-0.38","227","","j","","","","","","","","","","","","","key","j","16.6638902439026","853.3333333333334","476","./1_3_Stimuli/S_ambi40.png","朋友","Image","自我","Mismatch","j","true","Practice"
"","","","","","html-keyboard-response","91","542906","0.0-7.1-0.1-1.38","null","<span style='color:GreenYellow; font-size: 70px;'>正确! </span>","null","","","","","","","","","","","","","","","","","","","","","","","","","feedback"
"","","","","","psychophysics","92","544400","0.0-7.1-0.1-0.39","340","","f","","","","","","","","","","","","","key","f","16.666136363636312","853.3333333333334","476","./1_3_Stimuli/C_ambi40.png","自我","Image","朋友","Mismatch","j","false","Practice"
"","","","","","html-keyboard-response","93","544715","0.0-7.1-0.1-1.39","null","<span style='color:red; font-size: 70px;'>错误! </span>","null","","","","","","","","","","","","","","","","","","","","","","","","","feedback"
"","","","","","psychophysics","94","546140","0.0-7.1-0.1-0.40","272","","j","","","","","","","","","","","","","key","j","16.666552941176548","853.3333333333334","476","./1_3_Stimuli/S_ambi40.png","朋友","Word","自我","Mismatch","j","true","Practice"
"","","","","","html-keyboard-response","95","546455","0.0-7.1-0.1-1.40","null","<span style='color:GreenYellow; font-size: 70px;'>正确! </span>","null","","","","","","","","","","","","","","","","","","","","","","","","","feedback"
"","","","","","psychophysics","96","547863","0.0-7.1-0.1-0.41","252","","j","","","","","","","","","","","","","key","j","16.665903614458056","853.3333333333334","476","./1_3_Stimuli/C_ambi40.png","朋友","Word","朋友","Match","f","false","Practice"
"","","","","","html-keyboard-response","97","548173","0.0-7.1-0.1-1.41","null","<span style='color:red; font-size: 70px;'>错误! </span>","null","","","","","","","","","","","","","","","","","","","","","","","","","feedback"
"","","","","","psychophysics","98","549461","0.0-7.1-0.1-0.42","131","","f","","","","","","","","","","","","","key","f","16.6612368421047","853.3333333333334","476","./1_3_Stimuli/C_ambi40.png","朋友","Image","朋友","Match","f","true","Practice"
"","","","","","html-keyboard-response","99","549767","0.0-7.1-0.1-1.42","null","<span style='color:yellow; font-size: 70px;'>过快! </span>","null","","","","","","","","","","","","","","","","","","","","","","","","","feedback"
"","","","","","psychophysics","100","551237","0.0-7.1-0.1-0.43","319","","f","","","","","","","","","","","","","key","f","16.66501136363579","853.3333333333334","476","./1_3_Stimuli/T_ambi40.png","朋友","Image","他人","Mismatch","j","false","Practice"
"","","","","","html-keyboard-response","101","551542","0.0-7.1-0.1-1.43","null","<span style='color:red; font-size: 70px;'>错误! </span>","null","","","","","","","","","","","","","","","","","","","","","","","","","feedback"
"","","","","","psychophysics","102","552907","0.0-7.1-0.1-0.44","207","","f","","","","","","","","","","","","","key","f","16.667024691357785","853.3333333333334","476","./1_3_Stimuli/S_ambi40.png","自我","Word","自我","Match","f","true","Practice"
"","","","","","html-keyboard-response","103","553217","0.0-7.1-0.1-1.44","null","<span style='color:GreenYellow; font-size: 70px;'>正确! </span>","null","","","","","","","","","","","","","","","","","","","","","","","","","feedback"
"","","","","","psychophysics","104","554597","0.0-7.1-0.1-0.45","229","","j","","","","","","","","","","","","","key","j","16.666123456790192","853.3333333333334","476","./1_3_Stimuli/S_ambi40.png","自我","Word","自我","Match","f","false","Practice"
"","","","","","html-keyboard-response","105","554907","0.0-7.1-0.1-1.45","null","<span style='color:red; font-size: 70px;'>错误! </span>","null","","","","","","","","","","","","","","","","","","","","","","","","","feedback"
"","","","","","psychophysics","106","556371","0.0-7.1-0.1-0.46","303","","f","","","","","","","","","","","","","key","f","16.667080459769696","853.3333333333334","476","./1_3_Stimuli/C_ambi40.png","他人","Image","朋友","Mismatch","j","false","Practice"
"","","","","","html-keyboard-response","107","556682","0.0-7.1-0.1-1.46","null","<span style='color:red; font-size: 70px;'>错误! </span>","null","","","","","","","","","","","","","","","","","","","","","","","","","feedback"
"","","","","","psychophysics","108","558039","0.0-7.1-0.1-0.47","204","","f","","","","","","","","","","","","","key","f","16.66601234567955","853.3333333333334","476","./1_3_Stimuli/C_ambi40.png","自我","Word","朋友","Mismatch","j","false","Practice"
"","","","","","html-keyboard-response","109","558352","0.0-7.1-0.1-1.47","null","<span style='color:red; font-size: 70px;'>错误! </span>","null","","","","","","","","","","","","","","","","","","","","","","","","","feedback"
"","","","","","html-keyboard-response","110","564903","0.0-7.1-1.1-0.1","6549","<style>.context{color:white; font-size: 35px; line-height:40px}</style>                        <div><p class='context'>您正确回答了38% 的试次。</p><p class='context'>您的平均反应时为162毫秒。</p><p> <div style = 'color: green'><按空格键至下页></div></p>"," ","","","","","","","","","","","","","","","","","","","","","","","","",""
"","","","","","instructions","111","655858","0.0-7.1-1.1-1.1","90954","","","","","","","","","","","","","","[{""page_index"":0,""viewing_time"":8695},{""page_index"":1,""viewing_time"":75969},{""page_index"":2,""viewing_time"":6289}]","","","","","","","","","","","","",""
"","","","","","psychophysics","112","657160","0.0-7.2-0.2-0.48","147","","f","","","","","","","","","","","","","key","f","16.669155844156148","853.3333333333334","476","./1_3_Stimuli/C_ambi40.png","自我","Image","朋友","Mismatch","j","false","Practice"
"","","","","","html-keyboard-response","113","657476","0.0-7.2-0.2-1.48","null","<span style='color:yellow; font-size: 70px;'>过快! </span>","null","","","","","","","","","","","","","","","","","","","","","","","","","feedback"
"","","","","","psychophysics","114","658967","0.0-7.2-0.2-0.49","338","","f","","","","","","","","","","","","","key","f","16.66670786516788","853.3333333333334","476","./1_3_Stimuli/S_ambi40.png","自我","Word","自我","Match","f","true","Practice"
"","","","","","html-keyboard-response","115","659281","0.0-7.2-0.2-1.49","null","<span style='color:GreenYellow; font-size: 70px;'>正确! </span>","null","","","","","","","","","","","","","","","","","","","","","","","","","feedback"
"","","","","","psychophysics","116","660641","0.0-7.2-0.2-0.50","205","","j","","","","","","","","","","","","","key","j","16.666537499999684","853.3333333333334","476","./1_3_Stimuli/T_ambi40.png","他人","Image","他人","Match","f","false","Practice"
"","","","","","html-keyboard-response","117","660950","0.0-7.2-0.2-1.50","null","<span style='color:red; font-size: 70px;'>错误! </span>","null","","","","","","","","","","","","","","","","","","","","","","","","","feedback"
"","","","","","psychophysics","118","662272","0.0-7.2-0.2-0.51","159","","f","","","","","","","","","","","","","key","f","16.666102564102637","853.3333333333334","476","./1_3_Stimuli/S_ambi40.png","朋友","Image","自我","Mismatch","j","false","Practice"
"","","","","","html-keyboard-response","119","662587","0.0-7.2-0.2-1.51","null","<span style='color:yellow; font-size: 70px;'>过快! </span>","null","","","","","","","","","","","","","","","","","","","","","","","","","feedback"
"","","","","","psychophysics","120","664100","0.0-7.2-0.2-0.52","356","","f","","","","","","","","","","","","","key","f","16.66683333333349","853.3333333333334","476","./1_3_Stimuli/S_ambi40.png","自我","Image","自我","Match","f","true","Practice"
"","","","","","html-keyboard-response","121","664406","0.0-7.2-0.2-1.52","null","<span style='color:GreenYellow; font-size: 70px;'>正确! </span>","null","","","","","","","","","","","","","","","","","","","","","","","","","feedback"
"","","","","","psychophysics","122","665835","0.0-7.2-0.2-0.53","277","","j","","","","","","","","","","","","","key","j","16.6665882352945","853.3333333333334","476","./1_3_Stimuli/S_ambi40.png","朋友","Word","自我","Mismatch","j","true","Practice"
"","","","","","html-keyboard-response","123","666149","0.0-7.2-0.2-1.53","null","<span style='color:GreenYellow; font-size: 70px;'>正确! </span>","null","","","","","","","","","","","","","","","","","","","","","","","","","feedback"
"","","","","","psychophysics","124","667545","0.0-7.2-0.2-0.54","238","","f","","","","","","","","","","","","","key","f","16.66139024390311","853.3333333333334","476","./1_3_Stimuli/S_ambi40.png","他人","Word","自我","Mismatch","j","false","Practice"
"","","","","","html-keyboard-response","125","667851","0.0-7.2-0.2-1.54","null","<span style='color:red; font-size: 70px;'>错误! </span>","null","","","","","","","","","","","","","","","","","","","","","","","","","feedback"
"","","","","","psychophysics","126","669692","0.0-7.2-0.2-0.55","687","","j","","","","","","","","","","","","","key","j","16.665816513761673","853.3333333333334","476","./1_3_Stimuli/T_ambi40.png","他人","Word","他人","Match","f","false","Practice"
"","","","","","html-keyboard-response","127","669994","0.0-7.2-0.2-1.55","null","<span style='color:red; font-size: 70px;'>错误! </span>","null","","","","","","","","","","","","","","","","","","","","","","","","","feedback"
"","","","","","psychophysics","128","671472","0.0-7.2-0.2-0.56","327","","f","","","","","","","","","","","","","key","f","16.66548275862066","853.3333333333334","476","./1_3_Stimuli/T_ambi40.png","自我","Image","他人","Mismatch","j","false","Practice"
"","","","","","html-keyboard-response","129","671780","0.0-7.2-0.2-1.56","null","<span style='color:red; font-size: 70px;'>错误! </span>","null","","","","","","","","","","","","","","","","","","","","","","","","","feedback"
"","","","","","psychophysics","130","673232","0.0-7.2-0.2-0.57","293","","j","","","","","","","","","","","","","key","j","16.665744186046012","853.3333333333334","476","./1_3_Stimuli/T_ambi40.png","自我","Word","他人","Mismatch","j","true","Practice"
"","","","","","html-keyboard-response","131","673547","0.0-7.2-0.2-1.57","null","<span style='color:GreenYellow; font-size: 70px;'>正确! </span>","null","","","","","","","","","","","","","","","","","","","","","","","","","feedback"
"","","","","","psychophysics","132","675095","0.0-7.2-0.2-0.58","390","","j","","","","","","","","","","","","","key","j","16.66523076923165","853.3333333333334","476","./1_3_Stimuli/T_ambi40.png","朋友","Word","他人","Mismatch","j","true","Practice"
"","","","","","html-keyboard-response","133","675409","0.0-7.2-0.2-1.58","null","<span style='color:GreenYellow; font-size: 70px;'>正确! </span>","null","","","","","","","","","","","","","","","","","","","","","","","","","feedback"
"","","","","","psychophysics","134","676913","0.0-7.2-0.2-0.59","351","","j","","","","","","","","","","","","","key","j","16.66627777777871","853.3333333333334","476","./1_3_Stimuli/C_ambi40.png","他人","Word","朋友","Mismatch","j","true","Practice"
"","","","","","html-keyboard-response","135","677218","0.0-7.2-0.2-1.59","null","<span style='color:GreenYellow; font-size: 70px;'>正确! </span>","null","","","","","","","","","","","","","","","","","","","","","","","","","feedback"
"","","","","","psychophysics","136","678956","0.0-7.2-0.2-0.60","583","","f","","","","","","","","","","","","","key","f","16.665970873786137","853.3333333333334","476","./1_3_Stimuli/T_ambi40.png","朋友","Image","他人","Mismatch","j","false","Practice"
"","","","","","html-keyboard-response","137","679262","0.0-7.2-0.2-1.60","null","<span style='color:red; font-size: 70px;'>错误! </span>","null","","","","","","","","","","","","","","","","","","","","","","","","","feedback"
"","","","","","psychophysics","138","681036","0.0-7.2-0.2-0.61","623","","f","","","","","","","","","","","","","key","f","16.666428571428348","853.3333333333334","476","./1_3_Stimuli/S_ambi40.png","自我","Word","自我","Match","f","true","Practice"
"","","","","","html-keyboard-response","139","681352","0.0-7.2-0.2-1.61","null","<span style='color:GreenYellow; font-size: 70px;'>正确! </span>","null","","","","","","","","","","","","","","","","","","","","","","","","","feedback"
"","","","","","psychophysics","140","683164","0.0-7.2-0.2-0.62","658","","f","","","","","","","","","","","","","key","f","16.66656481481429","853.3333333333334","476","./1_3_Stimuli/C_ambi40.png","朋友","Image","朋友","Match","f","true","Practice"
"","","","","","html-keyboard-response","141","683474","0.0-7.2-0.2-1.62","null","<span style='color:GreenYellow; font-size: 70px;'>正确! </span>","null","","","","","","","","","","","","","","","","","","","","","","","","","feedback"
"","","","","","psychophysics","142","685295","0.0-7.2-0.2-0.63","667","","f","","","","","","","","","","","","","key","f","16.66663888888865","853.3333333333334","476","./1_3_Stimuli/C_ambi40.png","自我","Word","朋友","Mismatch","j","false","Practice"
"","","","","","html-keyboard-response","143","685607","0.0-7.2-0.2-1.63","null","<span style='color:red; font-size: 70px;'>错误! </span>","null","","","","","","","","","","","","","","","","","","","","","","","","","feedback"
"","","","","","psychophysics","144","687649","0.0-7.2-0.2-0.64","887","","j","","","","","","","","","","","","","key","j","16.66604918032812","853.3333333333334","476","./1_3_Stimuli/C_ambi40.png","朋友","Word","朋友","Match","f","false","Practice"
"","","","","","html-keyboard-response","145","687963","0.0-7.2-0.2-1.64","null","<span style='color:red; font-size: 70px;'>错误! </span>","null","","","","","","","","","","","","","","","","","","","","","","","","","feedback"
"","","","","","psychophysics","146","689882","0.0-7.2-0.2-0.65","754","","j","","","","","","","","","","","","","key","j","16.665999999999993","853.3333333333334","476","./1_3_Stimuli/C_ambi40.png","他人","Image","朋友","Mismatch","j","true","Practice"
"","","","","","html-keyboard-response","147","690187","0.0-7.2-0.2-1.65","null","<span style='color:GreenYellow; font-size: 70px;'>正确! </span>","null","","","","","","","","","","","","","","","","","","","","","","","","","feedback"
"","","","","","psychophysics","148","691952","0.0-7.2-0.2-0.66","610","","f","","","","","","","","","","","","","key","f","16.6665142857137","853.3333333333334","476","./1_3_Stimuli/T_ambi40.png","他人","Image","他人","Match","f","true","Practice"
"","","","","","html-keyboard-response","149","692264","0.0-7.2-0.2-1.66","null","<span style='color:GreenYellow; font-size: 70px;'>正确! </span>","null","","","","","","","","","","","","","","","","","","","","","","","","","feedback"
"","","","","","psychophysics","150","694037","0.0-7.2-0.2-0.67","615","","j","","","","","","","","","","","","","key","j","16.666095238094705","853.3333333333334","476","./1_3_Stimuli/C_ambi40.png","朋友","Image","朋友","Match","f","false","Practice"
"","","","","","html-keyboard-response","151","694342","0.0-7.2-0.2-1.67","null","<span style='color:red; font-size: 70px;'>错误! </span>","null","","","","","","","","","","","","","","","","","","","","","","","","","feedback"
"","","","","","psychophysics","152","696173","0.0-7.2-0.2-0.68","679","","j","","","","","","","","","","","","","key","j","16.66653211009176","853.3333333333334","476","./1_3_Stimuli/S_ambi40.png","他人","Image","自我","Mismatch","j","true","Practice"
"","","","","","html-keyboard-response","153","696479","0.0-7.2-0.2-1.68","null","<span style='color:GreenYellow; font-size: 70px;'>正确! </span>","null","","","","","","","","","","","","","","","","","","","","","","","","","feedback"
"","","","","","psychophysics","154","698359","0.0-7.2-0.2-0.69","722","","f","","","","","","","","","","","","","key","f","16.66596396396415","853.3333333333334","476","./1_3_Stimuli/C_ambi40.png","朋友","Word","朋友","Match","f","true","Practice"
"","","","","","html-keyboard-response","155","698669","0.0-7.2-0.2-1.69","null","<span style='color:GreenYellow; font-size: 70px;'>正确! </span>","null","","","","","","","","","","","","","","","","","","","","","","","","","feedback"
"","","","","","psychophysics","156","700367","0.0-7.2-0.2-0.70","540","","f","","","","","","","","","","","","","key","f","16.665623762376264","853.3333333333334","476","./1_3_Stimuli/S_ambi40.png","自我","Image","自我","Match","f","true","Practice"
"","","","","","html-keyboard-response","157","700674","0.0-7.2-0.2-1.70","null","<span style='color:GreenYellow; font-size: 70px;'>正确! </span>","null","","","","","","","","","","","","","","","","","","","","","","","","","feedback"
"","","","","","psychophysics","158","702455","0.0-7.2-0.2-0.71","626","","j","","","","","","","","","","","","","key","j","16.66627358490566","853.3333333333334","476","./1_3_Stimuli/T_ambi40.png","他人","Word","他人","Match","f","false","Practice"
"","","","","","html-keyboard-response","159","702758","0.0-7.2-0.2-1.71","null","<span style='color:red; font-size: 70px;'>错误! </span>","null","","","","","","","","","","","","","","","","","","","","","","","","","feedback"
"","","","","","html-keyboard-response","160","704989","0.0-7.2-1.2-0.2","2229","<style>.context{color:white; font-size: 35px; line-height:40px}</style>                        <div><p class='context'>您正确回答了54% 的试次。</p><p class='context'>您的平均反应时为507毫秒。</p><p> <div style = 'color: green'><按空格键至下页></div></p>"," ","","","","","","","","","","","","","","","","","","","","","","","","",""
"","","","","","instructions","161","716432","0.0-7.2-1.2-1.2","11442","","","","","","","","","","","","","","[{""page_index"":0,""viewing_time"":990},{""page_index"":1,""viewing_time"":7579},{""page_index"":2,""viewing_time"":2872}]","","","","","","","","","","","","",""
"","","","","","psychophysics","162","718104","0.0-7.3-0.3-0.72","517","","f","","","","","","","","","","","","","key","f","16.666101010100014","853.3333333333334","476","./1_3_Stimuli/S_ambi40.png","他人","Word","自我","Mismatch","j","false","Practice"
"","","","","","html-keyboard-response","163","718413","0.0-7.3-0.3-1.72","null","<span style='color:red; font-size: 70px;'>错误! </span>","null","","","","","","","","","","","","","","","","","","","","","","","","","feedback"
"","","","","","psychophysics","164","720113","0.0-7.3-0.3-0.73","547","","f","","","","","","","","","","","","","key","f","16.665772277227887","853.3333333333334","476","./1_3_Stimuli/T_ambi40.png","自我","Word","他人","Mismatch","j","false","Practice"
"","","","","","html-keyboard-response","165","720422","0.0-7.3-0.3-1.73","null","<span style='color:red; font-size: 70px;'>错误! </span>","null","","","","","","","","","","","","","","","","","","","","","","","","","feedback"
"","","","","","psychophysics","166","722415","0.0-7.3-0.3-0.74","837","","f","","","","","","","","","","","","","key","f","16.66646218487402","853.3333333333334","476","./1_3_Stimuli/T_ambi40.png","他人","Word","他人","Match","f","true","Practice"
"","","","","","html-keyboard-response","167","722715","0.0-7.3-0.3-1.74","null","<span style='color:GreenYellow; font-size: 70px;'>正确! </span>","null","","","","","","","","","","","","","","","","","","","","","","","","","feedback"
"","","","","","psychophysics","168","724560","0.0-7.3-0.3-0.75","686","","f","","","","","","","","","","","","","key","f","16.666706422019168","853.3333333333334","476","./1_3_Stimuli/T_ambi40.png","他人","Image","他人","Match","f","true","Practice"
"","","","","","html-keyboard-response","169","724872","0.0-7.3-0.3-1.75","null","<span style='color:GreenYellow; font-size: 70px;'>正确! </span>","null","","","","","","","","","","","","","","","","","","","","","","","","","feedback"
"","","","","","psychophysics","170","726603","0.0-7.3-0.3-0.76","576","","f","","","","","","","","","","","","","key","f","16.665873786407406","853.3333333333334","476","./1_3_Stimuli/C_ambi40.png","自我","Image","朋友","Mismatch","j","false","Practice"
"","","","","","html-keyboard-response","171","726911","0.0-7.3-0.3-1.76","null","<span style='color:red; font-size: 70px;'>错误! </span>","null","","","","","","","","","","","","","","","","","","","","","","","","","feedback"
"","","","","","psychophysics","172","728621","0.0-7.3-0.3-0.77","548","","j","","","","","","","","","","","","","key","j","16.66591089108894","853.3333333333334","476","./1_3_Stimuli/C_ambi40.png","他人","Image","朋友","Mismatch","j","true","Practice"
"","","","","","html-keyboard-response","173","728931","0.0-7.3-0.3-1.77","null","<span style='color:GreenYellow; font-size: 70px;'>正确! </span>","null","","","","","","","","","","","","","","","","","","","","","","","","","feedback"
"","","","","","psychophysics","174","730697","0.0-7.3-0.3-0.78","605","","j","","","","","","","","","","","","","key","j","16.66599047619051","853.3333333333334","476","./1_3_Stimuli/T_ambi40.png","朋友","Image","他人","Mismatch","j","true","Practice"
"","","","","","html-keyboard-response","175","731012","0.0-7.3-0.3-1.78","null","<span style='color:GreenYellow; font-size: 70px;'>正确! </span>","null","","","","","","","","","","","","","","","","","","","","","","","","","feedback"
"","","","","","psychophysics","176","733134","0.0-7.3-0.3-0.79","970","","j","","","","","","","","","","","","","key","j","16.66656349206321","853.3333333333334","476","./1_3_Stimuli/C_ambi40.png","他人","Word","朋友","Mismatch","j","true","Practice"
"","","","","","html-keyboard-response","177","733439","0.0-7.3-0.3-1.79","null","<span style='color:GreenYellow; font-size: 70px;'>正确! </span>","null","","","","","","","","","","","","","","","","","","","","","","","","","feedback"
"","","","","","psychophysics","178","735541","0.0-7.3-0.3-0.80","947","","f","","","","","","","","","","","","","key","f","16.666424000000582","853.3333333333334","476","./1_3_Stimuli/C_ambi40.png","朋友","Image","朋友","Match","f","true","Practice"
"","","","","","html-keyboard-response","179","735846","0.0-7.3-0.3-1.80","null","<span style='color:GreenYellow; font-size: 70px;'>正确! </span>","null","","","","","","","","","","","","","","","","","","","","","","","","","feedback"
"","","","","","psychophysics","180","737700","0.0-7.3-0.3-0.81","697","","f","","","","","","","","","","","","","key","f","16.665754545454615","853.3333333333334","476","./1_3_Stimuli/C_ambi40.png","朋友","Word","朋友","Match","f","true","Practice"
"","","","","","html-keyboard-response","181","738006","0.0-7.3-0.3-1.81","null","<span style='color:GreenYellow; font-size: 70px;'>正确! </span>","null","","","","","","","","","","","","","","","","","","","","","","","","","feedback"
"","","","","","psychophysics","182","739866","0.0-7.3-0.3-0.82","706","","j","","","","","","","","","","","","","key","j","16.665294642857457","853.3333333333334","476","./1_3_Stimuli/T_ambi40.png","自我","Image","他人","Mismatch","j","true","Practice"
"","","","","","html-keyboard-response","183","740173","0.0-7.3-0.3-1.82","null","<span style='color:GreenYellow; font-size: 70px;'>正确! </span>","null","","","","","","","","","","","","","","","","","","","","","","","","","feedback"
"","","","","","psychophysics","184","742360","0.0-7.3-0.3-0.83","1033","","f","","","","","","","","","","","","","key","f","16.666461538461647","853.3333333333334","476","./1_3_Stimuli/T_ambi40.png","他人","Image","他人","Match","f","true","Practice"
"","","","","","html-keyboard-response","185","742672","0.0-7.3-0.3-1.83","null","<span style='color:GreenYellow; font-size: 70px;'>正确! </span>","null","","","","","","","","","","","","","","","","","","","","","","","","","feedback"
"","","","","","psychophysics","186","744771","0.0-7.3-0.3-0.84","944","","j","","","","","","","","","","","","","key","j","16.666095999999904","853.3333333333334","476","./1_3_Stimuli/S_ambi40.png","朋友","Word","自我","Mismatch","j","true","Practice"
"","","","","","html-keyboard-response","187","745077","0.0-7.3-0.3-1.84","null","<span style='color:GreenYellow; font-size: 70px;'>正确! </span>","null","","","","","","","","","","","","","","","","","","","","","","","","","feedback"
"","","","","","psychophysics","188","747099","0.0-7.3-0.3-0.85","871","","j","","","","","","","","","","","","","key","j","16.664258333332448","853.3333333333334","476","./1_3_Stimuli/C_ambi40.png","自我","Word","朋友","Mismatch","j","true","Practice"
"","","","","","html-keyboard-response","189","747410","0.0-7.3-0.3-1.85","null","<span style='color:GreenYellow; font-size: 70px;'>正确! </span>","null","","","","","","","","","","","","","","","","","","","","","","","","","feedback"
"","","","","","psychophysics","190","749495","0.0-7.3-0.3-0.86","934","","j","","","","","","","","","","","","","key","j","16.667830645161185","853.3333333333334","476","./1_3_Stimuli/S_ambi40.png","朋友","Image","自我","Mismatch","j","true","Practice"
"","","","","","html-keyboard-response","191","749800","0.0-7.3-0.3-1.86","null","<span style='color:GreenYellow; font-size: 70px;'>正确! </span>","null","","","","","","","","","","","","","","","","","","","","","","","","","feedback"
"","","","","","psychophysics","192","751742","0.0-7.3-0.3-0.87","787","","f","","","","","","","","","","","","","key","f","16.665817391303488","853.3333333333334","476","./1_3_Stimuli/C_ambi40.png","朋友","Image","朋友","Match","f","true","Practice"
"","","","","","html-keyboard-response","193","752043","0.0-7.3-0.3-1.87","null","<span style='color:GreenYellow; font-size: 70px;'>正确! </span>","null","","","","","","","","","","","","","","","","","","","","","","","","","feedback"
"","","","","","psychophysics","194","753877","0.0-7.3-0.3-0.88","683","","f","","","","","","","","","","","","","key","f","16.66655963302671","853.3333333333334","476","./1_3_Stimuli/T_ambi40.png","他人","Word","他人","Match","f","true","Practice"
"","","","","","html-keyboard-response","195","754183","0.0-7.3-0.3-1.88","null","<span style='color:GreenYellow; font-size: 70px;'>正确! </span>","null","","","","","","","","","","","","","","","","","","","","","","","","","feedback"
"","","","","","psychophysics","196","756146","0.0-7.3-0.3-0.89","804","","j","","","","","","","","","","","","","key","j","16.666170940171273","853.3333333333334","476","./1_3_Stimuli/S_ambi40.png","自我","Word","自我","Match","f","false","Practice"
"","","","","","html-keyboard-response","197","756457","0.0-7.3-0.3-1.89","null","<span style='color:red; font-size: 70px;'>错误! </span>","null","","","","","","","","","","","","","","","","","","","","","","","","","feedback"
"","","","","","psychophysics","198","758141","0.0-7.3-0.3-0.90","531","","f","","","","","","","","","","","","","key","f","16.665707070707352","853.3333333333334","476","./1_3_Stimuli/S_ambi40.png","自我","Image","自我","Match","f","true","Practice"
"","","","","","html-keyboard-response","199","758446","0.0-7.3-0.3-1.90","null","<span style='color:GreenYellow; font-size: 70px;'>正确! </span>","null","","","","","","","","","","","","","","","","","","","","","","","","","feedback"
"","","","","","psychophysics","200","760492","0.0-7.3-0.3-0.91","890","","j","","","","","","","","","","","","","key","j","16.66603305785097","853.3333333333334","476","./1_3_Stimuli/T_ambi40.png","朋友","Word","他人","Mismatch","j","true","Practice"
"","","","","","html-keyboard-response","201","760805","0.0-7.3-0.3-1.91","null","<span style='color:GreenYellow; font-size: 70px;'>正确! </span>","null","","","","","","","","","","","","","","","","","","","","","","","","","feedback"
"","","","","","psychophysics","202","762694","0.0-7.3-0.3-0.92","735","","f","","","","","","","","","","","","","key","f","16.666380530974283","853.3333333333334","476","./1_3_Stimuli/C_ambi40.png","朋友","Word","朋友","Match","f","true","Practice"
"","","","","","html-keyboard-response","203","763007","0.0-7.3-0.3-1.92","null","<span style='color:GreenYellow; font-size: 70px;'>正确! </span>","null","","","","","","","","","","","","","","","","","","","","","","","","","feedback"
"","","","","","psychophysics","204","764995","0.0-7.3-0.3-0.93","836","","f","","","","","","","","","","","","","key","f","16.6660423728813","853.3333333333334","476","./1_3_Stimuli/S_ambi40.png","自我","Word","自我","Match","f","true","Practice"
"","","","","","html-keyboard-response","205","765305","0.0-7.3-0.3-1.93","null","<span style='color:GreenYellow; font-size: 70px;'>正确! </span>","null","","","","","","","","","","","","","","","","","","","","","","","","","feedback"
"","","","","","psychophysics","206","767155","0.0-7.3-0.3-0.94","696","","f","","","","","","","","","","","","","key","f","16.667027272726408","853.3333333333334","476","./1_3_Stimuli/S_ambi40.png","自我","Image","自我","Match","f","true","Practice"
"","","","","","html-keyboard-response","207","767459","0.0-7.3-0.3-1.94","null","<span style='color:GreenYellow; font-size: 70px;'>正确! </span>","null","","","","","","","","","","","","","","","","","","","","","","","","","feedback"
"","","","","","psychophysics","208","769265","0.0-7.3-0.3-0.95","652","","j","","","","","","","","","","","","","key","j","16.662252336448912","853.3333333333334","476","./1_3_Stimuli/S_ambi40.png","他人","Image","自我","Mismatch","j","true","Practice"
"","","","","","html-keyboard-response","209","769578","0.0-7.3-0.3-1.95","null","<span style='color:GreenYellow; font-size: 70px;'>正确! </span>","null","","","","","","","","","","","","","","","","","","","","","","","","","feedback"
"","","","","","html-keyboard-response","210","773665","0.0-7.3-1.3-0.3","4085","<style>.context{color:white; font-size: 35px; line-height:40px}</style>                        <div><p class='context'>您正确回答了83% 的试次。</p><p class='context'>您的平均反应时为779毫秒。</p><p> <div style = 'color: green'><按空格键至下页></div></p>"," ","","","","","","","","","","","","","","","","","","","","","","","","",""
"","","","","","instructions","211","786632","0.0-7.3-1.3-1.3","12966","","","","","","","","","","","","","","[{""page_index"":0,""viewing_time"":3715},{""page_index"":1,""viewing_time"":6922},{""page_index"":2,""viewing_time"":2328}]","","","","","","","","","","","","",""
"","","","","","psychophysics","212","788366","0.0-7.4-0.4-0.96","575","","j","","","","","","","","","","","","","key","j","16.66660194174789","853.3333333333334","476","./1_3_Stimuli/T_ambi40.png","他人","Image","他人","Match","f","false","Practice"
"","","","","","html-keyboard-response","213","788681","0.0-7.4-0.4-1.96","null","<span style='color:red; font-size: 70px;'>错误! </span>","null","","","","","","","","","","","","","","","","","","","","","","","","","feedback"
"","","","","","psychophysics","214","790517","0.0-7.4-0.4-0.97","679","","f","","","","","","","","","","","","","key","f","16.66674311926648","853.3333333333334","476","./1_3_Stimuli/C_ambi40.png","朋友","Image","朋友","Match","f","true","Practice"
"","","","","","html-keyboard-response","215","790819","0.0-7.4-0.4-1.97","null","<span style='color:GreenYellow; font-size: 70px;'>正确! </span>","null","","","","","","","","","","","","","","","","","","","","","","","","","feedback"
"","","","","","psychophysics","216","792707","0.0-7.4-0.4-0.98","733","","j","","","","","","","","","","","","","key","j","16.66624999999996","853.3333333333334","476","./1_3_Stimuli/C_ambi40.png","他人","Image","朋友","Mismatch","j","true","Practice"
"","","","","","html-keyboard-response","217","793019","0.0-7.4-0.4-1.98","null","<span style='color:GreenYellow; font-size: 70px;'>正确! </span>","null","","","","","","","","","","","","","","","","","","","","","","","","","feedback"
"","","","","","psychophysics","218","794705","0.0-7.4-0.4-0.99","534","","f","","","","","","","","","","","","","key","f","16.666110000000334","853.3333333333334","476","./1_3_Stimuli/C_ambi40.png","自我","Image","朋友","Mismatch","j","false","Practice"
"","","","","","html-keyboard-response","219","795018","0.0-7.4-0.4-1.99","null","<span style='color:red; font-size: 70px;'>错误! </span>","null","","","","","","","","","","","","","","","","","","","","","","","","","feedback"
"","","","","","psychophysics","220","796781","0.0-7.4-0.4-0.100","608","","f","","","","","","","","","","","","","key","f","16.66493396226422","853.3333333333334","476","./1_3_Stimuli/T_ambi40.png","他人","Word","他人","Match","f","true","Practice"
"","","","","","html-keyboard-response","221","797096","0.0-7.4-0.4-1.100","null","<span style='color:GreenYellow; font-size: 70px;'>正确! </span>","null","","","","","","","","","","","","","","","","","","","","","","","","","feedback"
"","","","","","psychophysics","222","798829","0.0-7.4-0.4-0.101","579","","f","","","","","","","","","","","","","key","f","16.66652427184355","853.3333333333334","476","./1_3_Stimuli/T_ambi40.png","他人","Word","他人","Match","f","true","Practice"
"","","","","","html-keyboard-response","223","799141","0.0-7.4-0.4-1.101","null","<span style='color:GreenYellow; font-size: 70px;'>正确! </span>","null","","","","","","","","","","","","","","","","","","","","","","","","","feedback"
"","","","","","psychophysics","224","800969","0.0-7.4-0.4-0.102","677","","j","","","","","","","","","","","","","key","j","16.666194444444653","853.3333333333334","476","./1_3_Stimuli/T_ambi40.png","自我","Image","他人","Mismatch","j","true","Practice"
"","","","","","html-keyboard-response","225","801280","0.0-7.4-0.4-1.102","null","<span style='color:GreenYellow; font-size: 70px;'>正确! </span>","null","","","","","","","","","","","","","","","","","","","","","","","","","feedback"
"","","","","","psychophysics","226","803341","0.0-7.4-0.4-0.103","907","","j","","","","","","","","","","","","","key","j","16.66587804878089","853.3333333333334","476","./1_3_Stimuli/S_ambi40.png","他人","Image","自我","Mismatch","j","true","Practice"
"","","","","","html-keyboard-response","227","803654","0.0-7.4-0.4-1.103","null","<span style='color:GreenYellow; font-size: 70px;'>正确! </span>","null","","","","","","","","","","","","","","","","","","","","","","","","","feedback"
"","","","","","psychophysics","228","805496","0.0-7.4-0.4-0.104","689","","f","","","","","","","","","","","","","key","f","16.65711926605548","853.3333333333334","476","./1_3_Stimuli/C_ambi40.png","朋友","Word","朋友","Match","f","true","Practice"
"","","","","","html-keyboard-response","229","805797","0.0-7.4-0.4-1.104","null","<span style='color:GreenYellow; font-size: 70px;'>正确! </span>","null","","","","","","","","","","","","","","","","","","","","","","","","","feedback"
"","","","","","psychophysics","230","807856","0.0-7.4-0.4-0.105","906","","f","","","","","","","","","","","","","key","f","16.66595081967248","853.3333333333334","476","./1_3_Stimuli/C_ambi40.png","朋友","Image","朋友","Match","f","true","Practice"
"","","","","","html-keyboard-response","231","808165","0.0-7.4-0.4-1.105","null","<span style='color:GreenYellow; font-size: 70px;'>正确! </span>","null","","","","","","","","","","","","","","","","","","","","","","","","","feedback"
"","","","","","psychophysics","232","809736","0.0-7.4-0.4-0.106","413","","f","","","","","","","","","","","","","key","f","16.667548387096094","853.3333333333334","476","./1_3_Stimuli/C_ambi40.png","自我","Word","朋友","Mismatch","j","false","Practice"
"","","","","","html-keyboard-response","233","810042","0.0-7.4-0.4-1.106","null","<span style='color:red; font-size: 70px;'>错误! </span>","null","","","","","","","","","","","","","","","","","","","","","","","","","feedback"
"","","","","","psychophysics","234","812204","0.0-7.4-0.4-0.107","999","","j","","","","","","","","","","","","","key","j","16.66596093750013","853.3333333333334","476","./1_3_Stimuli/T_ambi40.png","朋友","Image","他人","Mismatch","j","true","Practice"
"","","","","","html-keyboard-response","235","812511","0.0-7.4-0.4-1.107","null","<span style='color:GreenYellow; font-size: 70px;'>正确! </span>","null","","","","","","","","","","","","","","","","","","","","","","","","","feedback"
"","","","","","psychophysics","236","814580","0.0-7.4-0.4-0.108","915","","f","","","","","","","","","","","","","key","f","16.665666666666493","853.3333333333334","476","./1_3_Stimuli/T_ambi40.png","他人","Image","他人","Match","f","true","Practice"
"","","","","","html-keyboard-response","237","814883","0.0-7.4-0.4-1.108","null","<span style='color:GreenYellow; font-size: 70px;'>正确! </span>","null","","","","","","","","","","","","","","","","","","","","","","","","","feedback"
"","","","","","psychophysics","238","816600","0.0-7.4-0.4-0.109","566","","f","","","","","","","","","","","","","key","f","16.66614563106808","853.3333333333334","476","./1_3_Stimuli/T_ambi40.png","朋友","Word","他人","Mismatch","j","false","Practice"
"","","","","","html-keyboard-response","239","816909","0.0-7.4-0.4-1.109","null","<span style='color:red; font-size: 70px;'>错误! </span>","null","","","","","","","","","","","","","","","","","","","","","","","","","feedback"
"","","","","","psychophysics","240","818719","0.0-7.4-0.4-0.110","658","","f","","","","","","","","","","","","","key","f","16.666317757009093","853.3333333333334","476","./1_3_Stimuli/S_ambi40.png","他人","Word","自我","Mismatch","j","false","Practice"
"","","","","","html-keyboard-response","241","819025","0.0-7.4-0.4-1.110","null","<span style='color:red; font-size: 70px;'>错误! </span>","null","","","","","","","","","","","","","","","","","","","","","","","","","feedback"
"","","","","","psychophysics","242","820773","0.0-7.4-0.4-0.111","593","","f","","","","","","","","","","","","","key","f","16.66633653846153","853.3333333333334","476","./1_3_Stimuli/S_ambi40.png","自我","Image","自我","Match","f","true","Practice"
"","","","","","html-keyboard-response","243","821088","0.0-7.4-0.4-1.111","null","<span style='color:GreenYellow; font-size: 70px;'>正确! </span>","null","","","","","","","","","","","","","","","","","","","","","","","","","feedback"
"","","","","","psychophysics","244","822822","0.0-7.4-0.4-0.112","583","","f","","","","","","","","","","","","","key","f","16.66638235294023","853.3333333333334","476","./1_3_Stimuli/S_ambi40.png","自我","Word","自我","Match","f","true","Practice"
"","","","","","html-keyboard-response","245","823133","0.0-7.4-0.4-1.112","null","<span style='color:GreenYellow; font-size: 70px;'>正确! </span>","null","","","","","","","","","","","","","","","","","","","","","","","","","feedback"
"","","","","","psychophysics","246","824855","0.0-7.4-0.4-0.113","572","","j","","","","","","","","","","","","","key","j","16.66644117647015","853.3333333333334","476","./1_3_Stimuli/S_ambi40.png","朋友","Image","自我","Mismatch","j","true","Practice"
"","","","","","html-keyboard-response","247","825157","0.0-7.4-0.4-1.113","null","<span style='color:GreenYellow; font-size: 70px;'>正确! </span>","null","","","","","","","","","","","","","","","","","","","","","","","","","feedback"
"","","","","","psychophysics","248","826966","0.0-7.4-0.4-0.114","648","","f","","","","","","","","","","","","","key","f","16.665934579439295","853.3333333333334","476","./1_3_Stimuli/S_ambi40.png","自我","Word","自我","Match","f","true","Practice"
"","","","","","html-keyboard-response","249","827274","0.0-7.4-0.4-1.114","null","<span style='color:GreenYellow; font-size: 70px;'>正确! </span>","null","","","","","","","","","","","","","","","","","","","","","","","","","feedback"
"","","","","","psychophysics","250","829095","0.0-7.4-0.4-0.115","668","","f","","","","","","","","","","","","","key","f","16.66246296296379","853.3333333333334","476","./1_3_Stimuli/C_ambi40.png","朋友","Word","朋友","Match","f","true","Practice"
"","","","","","html-keyboard-response","251","829401","0.0-7.4-0.4-1.115","null","<span style='color:GreenYellow; font-size: 70px;'>正确! </span>","null","","","","","","","","","","","","","","","","","","","","","","","","","feedback"
"","","","","","psychophysics","252","831169","0.0-7.4-0.4-0.116","615","","j","","","","","","","","","","","","","key","j","16.66619047619003","853.3333333333334","476","./1_3_Stimuli/S_ambi40.png","朋友","Word","自我","Mismatch","j","true","Practice"
"","","","","","html-keyboard-response","253","831475","0.0-7.4-0.4-1.116","null","<span style='color:GreenYellow; font-size: 70px;'>正确! </span>","null","","","","","","","","","","","","","","","","","","","","","","","","","feedback"
"","","","","","psychophysics","254","833391","0.0-7.4-0.4-0.117","761","","j","","","","","","","","","","","","","key","j","16.665526315789432","853.3333333333334","476","./1_3_Stimuli/C_ambi40.png","他人","Word","朋友","Mismatch","j","true","Practice"
"","","","","","html-keyboard-response","255","833707","0.0-7.4-0.4-1.117","null","<span style='color:GreenYellow; font-size: 70px;'>正确! </span>","null","","","","","","","","","","","","","","","","","","","","","","","","","feedback"
"","","","","","psychophysics","256","835393","0.0-7.4-0.4-0.118","526","","f","","","","","","","","","","","","","key","f","16.66432999999961","853.3333333333334","476","./1_3_Stimuli/S_ambi40.png","自我","Image","自我","Match","f","true","Practice"
"","","","","","html-keyboard-response","257","835697","0.0-7.4-0.4-1.118","null","<span style='color:GreenYellow; font-size: 70px;'>正确! </span>","null","","","","","","","","","","","","","","","","","","","","","","","","","feedback"
"","","","","","psychophysics","258","837453","0.0-7.4-0.4-0.119","599","","j","","","","","","","","","","","","","key","j","16.66616346153919","853.3333333333334","476","./1_3_Stimuli/T_ambi40.png","自我","Word","他人","Mismatch","j","true","Practice"
"","","","","","html-keyboard-response","259","837758","0.0-7.4-0.4-1.119","null","<span style='color:GreenYellow; font-size: 70px;'>正确! </span>","null","","","","","","","","","","","","","","","","","","","","","","","","","feedback"
"","","","","","html-keyboard-response","260","839588","0.0-7.4-1.4-0.4","1828","<style>.context{color:white; font-size: 35px; line-height:40px}</style>                        <div><p class='context'>您正确回答了79% 的试次。</p><p class='context'>您的平均反应时为698毫秒。</p><p> <div style = 'color: green'><按空格键至下页></div></p>"," ","","","","","","","","","","","","","","","","","","","","","","","","",""
"","","","","","instructions","261","845088","0.0-7.4-1.4-1.4","5498","","","","","","","","","","","","","","[{""page_index"":0,""viewing_time"":1616},{""page_index"":1,""viewing_time"":2003},{""page_index"":2,""viewing_time"":1879}]","","","","","","","","","","","","",""
"","","","","","psychophysics","262","846974","0.0-7.5-0.5-0.120","735","","f","","","","","","","","","","","","","key","f","16.666000000000558","853.3333333333334","476","./1_3_Stimuli/T_ambi40.png","他人","Image","他人","Match","f","true","Practice"
"","","","","","html-keyboard-response","263","847283","0.0-7.5-0.5-1.120","null","<span style='color:GreenYellow; font-size: 70px;'>正确! </span>","null","","","","","","","","","","","","","","","","","","","","","","","","","feedback"
"","","","","","psychophysics","264","849228","0.0-7.5-0.5-0.121","791","","j","","","","","","","","","","","","","key","j","16.66608620689608","853.3333333333334","476","./1_3_Stimuli/T_ambi40.png","他人","Word","他人","Match","f","false","Practice"
"","","","","","html-keyboard-response","265","849543","0.0-7.5-0.5-1.121","null","<span style='color:red; font-size: 70px;'>错误! </span>","null","","","","","","","","","","","","","","","","","","","","","","","","","feedback"
"","","","","","psychophysics","266","851368","0.0-7.5-0.5-0.122","671","","j","","","","","","","","","","","","","key","j","16.6635925925921","853.3333333333334","476","./1_3_Stimuli/T_ambi40.png","自我","Word","他人","Mismatch","j","true","Practice"
"","","","","","html-keyboard-response","267","851680","0.0-7.5-0.5-1.122","null","<span style='color:GreenYellow; font-size: 70px;'>正确! </span>","null","","","","","","","","","","","","","","","","","","","","","","","","","feedback"
"","","","","","psychophysics","268","853645","0.0-7.5-0.5-0.123","811","","j","","","","","","","","","","","","","key","j","16.66631623931651","853.3333333333334","476","./1_3_Stimuli/C_ambi40.png","自我","Word","朋友","Mismatch","j","true","Practice"
"","","","","","html-keyboard-response","269","853960","0.0-7.5-0.5-1.123","null","<span style='color:GreenYellow; font-size: 70px;'>正确! </span>","null","","","","","","","","","","","","","","","","","","","","","","","","","feedback"
"","","","","","psychophysics","270","855750","0.0-7.5-0.5-0.124","634","","f","","","","","","","","","","","","","key","f","16.66642452830137","853.3333333333334","476","./1_3_Stimuli/T_ambi40.png","他人","Image","他人","Match","f","true","Practice"
"","","","","","html-keyboard-response","271","856053","0.0-7.5-0.5-1.124","null","<span style='color:GreenYellow; font-size: 70px;'>正确! </span>","null","","","","","","","","","","","","","","","","","","","","","","","","","feedback"
"","","","","","psychophysics","272","857986","0.0-7.5-0.5-0.125","782","","j","","","","","","","","","","","","","key","j","16.66571052631531","853.3333333333334","476","./1_3_Stimuli/S_ambi40.png","他人","Image","自我","Mismatch","j","true","Practice"
"","","","","","html-keyboard-response","273","858288","0.0-7.5-0.5-1.125","null","<span style='color:GreenYellow; font-size: 70px;'>正确! </span>","null","","","","","","","","","","","","","","","","","","","","","","","","","feedback"
"","","","","","psychophysics","274","860242","0.0-7.5-0.5-0.126","803","","j","","","","","","","","","","","","","key","j","16.665534482758034","853.3333333333334","476","./1_3_Stimuli/T_ambi40.png","朋友","Image","他人","Mismatch","j","true","Practice"
"","","","","","html-keyboard-response","275","860546","0.0-7.5-0.5-1.126","null","<span style='color:GreenYellow; font-size: 70px;'>正确! </span>","null","","","","","","","","","","","","","","","","","","","","","","","","","feedback"
"","","","","","psychophysics","276","862461","0.0-7.5-0.5-0.127","758","","f","","","","","","","","","","","","","key","f","16.666657894736424","853.3333333333334","476","./1_3_Stimuli/S_ambi40.png","朋友","Word","自我","Mismatch","j","false","Practice"
"","","","","","html-keyboard-response","277","862763","0.0-7.5-0.5-1.127","null","<span style='color:red; font-size: 70px;'>错误! </span>","null","","","","","","","","","","","","","","","","","","","","","","","","","feedback"
"","","","","","psychophysics","278","864581","0.0-7.5-0.5-0.128","661","","f","","","","","","","","","","","","","key","f","16.66661111111063","853.3333333333334","476","./1_3_Stimuli/C_ambi40.png","朋友","Word","朋友","Match","f","true","Practice"
"","","","","","html-keyboard-response","279","864886","0.0-7.5-0.5-1.128","null","<span style='color:GreenYellow; font-size: 70px;'>正确! </span>","null","","","","","","","","","","","","","","","","","","","","","","","","","feedback"
"","","","","","psychophysics","280","866777","0.0-7.5-0.5-0.129","740","","f","","","","","","","","","","","","","key","f","16.666464285714028","853.3333333333334","476","./1_3_Stimuli/S_ambi40.png","自我","Word","自我","Match","f","true","Practice"
"","","","","","html-keyboard-response","281","867078","0.0-7.5-0.5-1.129","null","<span style='color:GreenYellow; font-size: 70px;'>正确! </span>","null","","","","","","","","","","","","","","","","","","","","","","","","","feedback"
"","","","","","psychophysics","282","869432","0.0-7.5-0.5-0.130","1198","","f","","","","","","","","","","","","","key","f","16.666549999999447","853.3333333333334","476","./1_3_Stimuli/C_ambi40.png","朋友","Image","朋友","Match","f","true","Practice"
"","","","","","html-keyboard-response","283","869733","0.0-7.5-0.5-1.130","null","<span style='color:GreenYellow; font-size: 70px;'>正确! </span>","null","","","","","","","","","","","","","","","","","","","","","","","","","feedback"
"","","","","","psychophysics","284","871452","0.0-7.5-0.5-0.131","566","","f","","","","","","","","","","","","","key","f","16.665679611649942","853.3333333333334","476","./1_3_Stimuli/S_ambi40.png","自我","Word","自我","Match","f","true","Practice"
"","","","","","html-keyboard-response","285","871760","0.0-7.5-0.5-1.131","null","<span style='color:GreenYellow; font-size: 70px;'>正确! </span>","null","","","","","","","","","","","","","","","","","","","","","","","","","feedback"
"","","","","","psychophysics","286","873677","0.0-7.5-0.5-0.132","755","","j","","","","","","","","","","","","","key","j","16.666754385964992","853.3333333333334","476","./1_3_Stimuli/T_ambi40.png","自我","Image","他人","Mismatch","j","true","Practice"
"","","","","","html-keyboard-response","287","873986","0.0-7.5-0.5-1.132","null","<span style='color:GreenYellow; font-size: 70px;'>正确! </span>","null","","","","","","","","","","","","","","","","","","","","","","","","","feedback"
"","","","","","psychophysics","288","875706","0.0-7.5-0.5-0.133","569","","f","","","","","","","","","","","","","key","f","16.666019607843218","853.3333333333334","476","./1_3_Stimuli/S_ambi40.png","自我","Image","自我","Match","f","true","Practice"
"","","","","","html-keyboard-response","289","876020","0.0-7.5-0.5-1.133","null","<span style='color:GreenYellow; font-size: 70px;'>正确! </span>","null","","","","","","","","","","","","","","","","","","","","","","","","","feedback"
"","","","","","psychophysics","290","877860","0.0-7.5-0.5-0.134","690","","f","","","","","","","","","","","","","key","f","16.666018348624032","853.3333333333334","476","./1_3_Stimuli/C_ambi40.png","朋友","Image","朋友","Match","f","true","Practice"
"","","","","","html-keyboard-response","291","878170","0.0-7.5-0.5-1.134","null","<span style='color:GreenYellow; font-size: 70px;'>正确! </span>","null","","","","","","","","","","","","","","","","","","","","","","","","","feedback"
"","","","","","psychophysics","292","880031","0.0-7.5-0.5-0.135","709","","j","","","","","","","","","","","","","key","j","16.66839999999978","853.3333333333334","476","./1_3_Stimuli/C_ambi40.png","他人","Image","朋友","Mismatch","j","true","Practice"
"","","","","","html-keyboard-response","293","880335","0.0-7.5-0.5-1.135","null","<span style='color:GreenYellow; font-size: 70px;'>正确! </span>","null","","","","","","","","","","","","","","","","","","","","","","","","","feedback"
"","","","","","psychophysics","294","882192","0.0-7.5-0.5-0.136","705","","f","","","","","","","","","","","","","key","f","16.666236363637093","853.3333333333334","476","./1_3_Stimuli/C_ambi40.png","朋友","Word","朋友","Match","f","true","Practice"
"","","","","","html-keyboard-response","295","882497","0.0-7.5-0.5-1.136","null","<span style='color:GreenYellow; font-size: 70px;'>正确! </span>","null","","","","","","","","","","","","","","","","","","","","","","","","","feedback"
"","","","","","psychophysics","296","884291","0.0-7.5-0.5-0.137","642","","j","","","","","","","","","","","","","key","j","16.66673831775606","853.3333333333334","476","./1_3_Stimuli/S_ambi40.png","朋友","Image","自我","Mismatch","j","true","Practice"
"","","","","","html-keyboard-response","297","884599","0.0-7.5-0.5-1.137","null","<span style='color:GreenYellow; font-size: 70px;'>正确! </span>","null","","","","","","","","","","","","","","","","","","","","","","","","","feedback"
"","","","","","psychophysics","298","886645","0.0-7.5-0.5-0.138","891","","j","","","","","","","","","","","","","key","j","16.666180327868656","853.3333333333334","476","./1_3_Stimuli/C_ambi40.png","自我","Image","朋友","Mismatch","j","true","Practice"
"","","","","","html-keyboard-response","299","886953","0.0-7.5-0.5-1.138","null","<span style='color:GreenYellow; font-size: 70px;'>正确! </span>","null","","","","","","","","","","","","","","","","","","","","","","","","","feedback"
"","","","","","psychophysics","300","888910","0.0-7.5-0.5-0.139","806","","j","","","","","","","","","","","","","key","j","16.66587931034456","853.3333333333334","476","./1_3_Stimuli/T_ambi40.png","朋友","Word","他人","Mismatch","j","true","Practice"
"","","","","","html-keyboard-response","301","889217","0.0-7.5-0.5-1.139","null","<span style='color:GreenYellow; font-size: 70px;'>正确! </span>","null","","","","","","","","","","","","","","","","","","","","","","","","","feedback"
"","","","","","psychophysics","302","890883","0.0-7.5-0.5-0.140","512","","f","","","","","","","","","","","","","key","f","16.658142857143076","853.3333333333334","476","./1_3_Stimuli/S_ambi40.png","自我","Image","自我","Match","f","true","Practice"
"","","","","","html-keyboard-response","303","891198","0.0-7.5-0.5-1.140","null","<span style='color:GreenYellow; font-size: 70px;'>正确! </span>","null","","","","","","","","","","","","","","","","","","","","","","","","","feedback"
"","","","","","psychophysics","304","893111","0.0-7.5-0.5-0.141","757","","j","","","","","","","","","","","","","key","j","16.66610526315778","853.3333333333334","476","./1_3_Stimuli/C_ambi40.png","他人","Word","朋友","Mismatch","j","true","Practice"
"","","","","","html-keyboard-response","305","893419","0.0-7.5-0.5-1.141","null","<span style='color:GreenYellow; font-size: 70px;'>正确! </span>","null","","","","","","","","","","","","","","","","","","","","","","","","","feedback"
"","","","","","psychophysics","306","895586","0.0-7.5-0.5-0.142","1016","","f","","","","","","","","","","","","","key","f","16.666429687499658","853.3333333333334","476","./1_3_Stimuli/T_ambi40.png","他人","Word","他人","Match","f","true","Practice"
"","","","","","html-keyboard-response","307","895889","0.0-7.5-0.5-1.142","null","<span style='color:GreenYellow; font-size: 70px;'>正确! </span>","null","","","","","","","","","","","","","","","","","","","","","","","","","feedback"
"","","","","","psychophysics","308","897919","0.0-7.5-0.5-0.143","873","","j","","","","","","","","","","","","","key","j","16.665850000000017","853.3333333333334","476","./1_3_Stimuli/S_ambi40.png","他人","Word","自我","Mismatch","j","true","Practice"
"","","","","","html-keyboard-response","309","898229","0.0-7.5-0.5-1.143","null","<span style='color:GreenYellow; font-size: 70px;'>正确! </span>","null","","","","","","","","","","","","","","","","","","","","","","","","","feedback"
"","","","","","html-keyboard-response","310","967717","0.0-8.0","69486","<style>.context{color:white; font-size: 35px; line-height:40px}</style>                          <div><p class='context'>您正确回答了92% 的试次。</p><p class='context'>您的平均反应时为751毫秒。</p><p class='context'>恭喜您完成练习。现在请休息3~5分钟。</p><p class='context'>之后，按任意键进入正式实验。需要注意的是，正式实验将不再提供反应是否正确的反馈。</p><p class='footer' style='font-size: 35px; line-height:40px;'>请在进入正式实验实验之前将您的<span style='color: lightgreen;'>食指</span>放在电脑键盘的相应键位上进行按键。</p>"," ","","","","","","","","","","","","","","","","","","","","","","","","",""
"","","","","","psychophysics","311","969491","0.0-9.0-0.0-0.0","610","","f","","","","","","","","","","","","","key","f","16.66619047619003","853.3333333333334","476","./1_3_Stimuli/S_ambi40.png","自我","Image","自我","Match","f","true","Formal"
"","","","","","psychophysics","312","971295","0.0-9.0-0.0-0.1","645","","f","","","","","","","","","","","","","key","f","16.666140186915904","853.3333333333334","476","./1_3_Stimuli/C_ambi40.png","朋友","Word","朋友","Match","f","true","Formal"
"","","","","","psychophysics","313","973167","0.0-9.0-0.0-0.2","718","","j","","","","","","","","","","","","","key","j","16.66542857142901","853.3333333333334","476","./1_3_Stimuli/T_ambi40.png","朋友","Image","他人","Mismatch","j","true","Formal"
"","","","","","psychophysics","314","974823","0.0-9.0-0.0-0.3","495","","f","","","","","","","","","","","","","key","f","16.667030612244364","853.3333333333334","476","./1_3_Stimuli/S_ambi40.png","自我","Image","自我","Match","f","true","Formal"
"","","","","","psychophysics","315","976661","0.0-9.0-0.0-0.4","680","","j","","","","","","","","","","","","","key","j","16.665990825689082","853.3333333333334","476","./1_3_Stimuli/C_ambi40.png","自我","Image","朋友","Mismatch","j","true","Formal"
"","","","","","psychophysics","316","978570","0.0-9.0-0.0-0.5","754","","j","","","","","","","","","","","","","key","j","16.666982456141053","853.3333333333334","476","./1_3_Stimuli/T_ambi40.png","朋友","Word","他人","Mismatch","j","true","Formal"
"","","","","","psychophysics","317","980693","0.0-9.0-0.0-0.6","966","","f","","","","","","","","","","","","","key","f","16.666063492063486","853.3333333333334","476","./1_3_Stimuli/C_ambi40.png","朋友","Image","朋友","Match","f","true","Formal"
"","","","","","psychophysics","318","982667","0.0-9.0-0.0-0.7","819","","j","","","","","","","","","","","","","key","j","16.66607627118602","853.3333333333334","476","./1_3_Stimuli/S_ambi40.png","他人","Word","自我","Mismatch","j","true","Formal"
"","","","","","psychophysics","319","984458","0.0-9.0-0.0-0.8","628","","f","","","","","","","","","","","","","key","f","16.665198113206984","853.3333333333334","476","./1_3_Stimuli/S_ambi40.png","朋友","Image","自我","Mismatch","j","false","Formal"
"","","","","","psychophysics","320","986446","0.0-9.0-0.0-0.9","837","","f","","","","","","","","","","","","","key","f","16.666711864406953","853.3333333333334","476","./1_3_Stimuli/T_ambi40.png","他人","Word","他人","Match","f","true","Formal"
"","","","","","psychophysics","321","988440","0.0-9.0-0.0-0.10","841","","f","","","","","","","","","","","","","key","f","16.66659322033944","853.3333333333334","476","./1_3_Stimuli/T_ambi40.png","他人","Image","他人","Match","f","true","Formal"
"","","","","","psychophysics","322","990363","0.0-9.0-0.0-0.11","765","","f","","","","","","","","","","","","","key","f","16.66571929824555","853.3333333333334","476","./1_3_Stimuli/C_ambi40.png","朋友","Word","朋友","Match","f","true","Formal"
"","","","","","psychophysics","323","992453","0.0-9.0-0.0-0.12","937","","j","","","","","","","","","","","","","key","j","16.66587200000044","853.3333333333334","476","./1_3_Stimuli/S_ambi40.png","朋友","Word","自我","Mismatch","j","true","Formal"
"","","","","","psychophysics","324","994275","0.0-9.0-0.0-0.13","669","","f","","","","","","","","","","","","","key","f","16.66631481481535","853.3333333333334","476","./1_3_Stimuli/T_ambi40.png","他人","Image","他人","Match","f","true","Formal"
"","","","","","psychophysics","325","996026","0.0-9.0-0.0-0.14","594","","j","","","","","","","","","","","","","key","j","16.666028846153775","853.3333333333334","476","./1_3_Stimuli/T_ambi40.png","自我","Word","他人","Mismatch","j","true","Formal"
"","","","","","psychophysics","326","997669","0.0-9.0-0.0-0.15","487","","f","","","","","","","","","","","","","key","f","16.662214285714256","853.3333333333334","476","./1_3_Stimuli/C_ambi40.png","自我","Word","朋友","Mismatch","j","false","Formal"
"","","","","","psychophysics","327","1000320","0.0-9.0-0.0-0.16","1497","","j","","","","","","","","","","","","","key","j","16.665734177215842","853.3333333333334","476","./1_3_Stimuli/C_ambi40.png","他人","Image","朋友","Mismatch","j","true","Formal"
"","","","","","psychophysics","328","1002905","0.0-9.0-0.0-0.17","1425","","j","","","","","","","","","","","","","key","j","16.66583116883155","853.3333333333334","476","./1_3_Stimuli/T_ambi40.png","他人","Word","他人","Match","f","false","Formal"
"","","","","","psychophysics","329","1004790","0.0-9.0-0.0-0.18","725","","j","","","","","","","","","","","","","key","j","16.66595535714337","853.3333333333334","476","./1_3_Stimuli/T_ambi40.png","自我","Image","他人","Mismatch","j","true","Formal"
"","","","","","psychophysics","330","1006957","0.0-9.0-0.0-0.19","1013","","j","","","","","","","","","","","","","key","j","16.665527131782966","853.3333333333334","476","./1_3_Stimuli/C_ambi40.png","他人","Word","朋友","Mismatch","j","true","Formal"
"","","","","","psychophysics","331","1008642","0.0-9.0-0.0-0.20","530","","f","","","","","","","","","","","","","key","f","16.665370000000113","853.3333333333334","476","./1_3_Stimuli/S_ambi40.png","自我","Word","自我","Match","f","true","Formal"
"","","","","","psychophysics","332","1010561","0.0-9.0-0.0-0.21","764","","f","","","","","","","","","","","","","key","f","16.665385964912723","853.3333333333334","476","./1_3_Stimuli/C_ambi40.png","朋友","Image","朋友","Match","f","true","Formal"
"","","","","","psychophysics","333","1012710","0.0-9.0-0.0-0.22","998","","j","","","","","","","","","","","","","key","j","16.66627559055094","853.3333333333334","476","./1_3_Stimuli/S_ambi40.png","他人","Image","自我","Mismatch","j","true","Formal"
"","","","","","psychophysics","334","1014855","0.0-9.0-0.0-0.23","991","","f","","","","","","","","","","","","","key","f","16.663289062500553","853.3333333333334","476","./1_3_Stimuli/S_ambi40.png","自我","Word","自我","Match","f","true","Formal"
"","","","","","psychophysics","335","1016814","0.0-9.0-0.0-0.24","800","","j","","","","","","","","","","","","","key","j","16.665646551723857","853.3333333333334","476","./1_3_Stimuli/S_ambi40.png","他人","Word","自我","Mismatch","j","true","Formal"
"","","","","","psychophysics","336","1018984","0.0-9.0-0.0-0.25","1020","","j","","","","","","","","","","","","","key","j","16.666069767441485","853.3333333333334","476","./1_3_Stimuli/S_ambi40.png","朋友","Image","自我","Mismatch","j","true","Formal"
"","","","","","psychophysics","337","1021393","0.0-9.0-0.0-0.26","1253","","j","","","","","","","","","","","","","key","j","16.666958041958043","853.3333333333334","476","./1_3_Stimuli/C_ambi40.png","他人","Word","朋友","Mismatch","j","true","Formal"
"","","","","","psychophysics","338","1023461","0.0-9.0-0.0-0.27","916","","f","","","","","","","","","","","","","key","f","16.66573170731715","853.3333333333334","476","./1_3_Stimuli/T_ambi40.png","他人","Image","他人","Match","f","true","Formal"
"","","","","","psychophysics","339","1025363","0.0-9.0-0.0-0.28","749","","f","","","","","","","","","","","","","key","f","16.663991071428295","853.3333333333334","476","./1_3_Stimuli/C_ambi40.png","朋友","Word","朋友","Match","f","true","Formal"
"","","","","","psychophysics","340","1027134","0.0-9.0-0.0-0.29","620","","j","","","","","","","","","","","","","key","j","16.666019047619333","853.3333333333334","476","./1_3_Stimuli/T_ambi40.png","朋友","Word","他人","Mismatch","j","true","Formal"
"","","","","","psychophysics","341","1029046","0.0-9.0-0.0-0.30","758","","j","","","","","","","","","","","","","key","j","16.665070796459585","853.3333333333334","476","./1_3_Stimuli/T_ambi40.png","他人","Word","他人","Match","f","false","Formal"
"","","","","","psychophysics","342","1031248","0.0-9.0-0.0-0.31","1051","","f","","","","","","","","","","","","","key","f","16.66581679389364","853.3333333333334","476","./1_3_Stimuli/C_ambi40.png","朋友","Word","朋友","Match","f","true","Formal"
"","","","","","psychophysics","343","1033115","0.0-9.0-0.0-0.32","715","","j","","","","","","","","","","","","","key","j","16.665990990990363","853.3333333333334","476","./1_3_Stimuli/S_ambi40.png","他人","Image","自我","Mismatch","j","true","Formal"
"","","","","","psychophysics","344","1034987","0.0-9.0-0.0-0.33","715","","f","","","","","","","","","","","","","key","f","16.66488288288206","853.3333333333334","476","./1_3_Stimuli/S_ambi40.png","自我","Word","自我","Match","f","true","Formal"
"","","","","","psychophysics","345","1037234","0.0-9.0-0.0-0.34","1092","","f","","","","","","","","","","","","","key","f","16.665283582089018","853.3333333333334","476","./1_3_Stimuli/C_ambi40.png","朋友","Image","朋友","Match","f","true","Formal"
"","","","","","psychophysics","346","1039060","0.0-9.0-0.0-0.35","671","","j","","","","","","","","","","","","","key","j","16.665925925925237","853.3333333333334","476","./1_3_Stimuli/C_ambi40.png","他人","Image","朋友","Mismatch","j","true","Formal"
"","","","","","psychophysics","347","1041210","0.0-9.0-0.0-0.36","997","","f","","","","","","","","","","","","","key","f","16.665726562499913","853.3333333333334","476","./1_3_Stimuli/T_ambi40.png","他人","Word","他人","Match","f","true","Formal"
"","","","","","psychophysics","348","1042998","0.0-9.0-0.0-0.37","635","","j","","","","","","","","","","","","","key","j","16.66615094339589","853.3333333333334","476","./1_3_Stimuli/C_ambi40.png","自我","Word","朋友","Mismatch","j","true","Formal"
"","","","","","psychophysics","349","1044704","0.0-9.0-0.0-0.38","541","","f","","","","","","","","","","","","","key","f","16.665475247524643","853.3333333333334","476","./1_3_Stimuli/S_ambi40.png","自我","Image","自我","Match","f","true","Formal"
"","","","","","psychophysics","350","1046378","0.0-9.0-0.0-0.39","523","","f","","","","","","","","","","","","","key","f","16.666444444444473","853.3333333333334","476","./1_3_Stimuli/S_ambi40.png","自我","Word","自我","Match","f","true","Formal"
"","","","","","psychophysics","351","1047990","0.0-9.0-0.0-0.40","460","","f","","","","","","","","","","","","","key","f","16.666431578947233","853.3333333333334","476","./1_3_Stimuli/S_ambi40.png","自我","Image","自我","Match","f","true","Formal"
"","","","","","psychophysics","352","1050518","0.0-9.0-0.0-0.41","1376","","j","","","","","","","","","","","","","key","j","16.665708609270734","853.3333333333334","476","./1_3_Stimuli/T_ambi40.png","自我","Word","他人","Mismatch","j","true","Formal"
"","","","","","psychophysics","353","1052693","0.0-9.0-0.0-0.42","1023","","j","","","","","","","","","","","","","key","j","16.665875968992594","853.3333333333334","476","./1_3_Stimuli/S_ambi40.png","朋友","Word","自我","Mismatch","j","true","Formal"
"","","","","","psychophysics","354","1055396","0.0-9.0-0.0-0.43","null","","null","","","","","","","","","","","","","key","null","16.664832298136286","853.3333333333334","476","./1_3_Stimuli/T_ambi40.png","朋友","Image","他人","Mismatch","j","false","Formal"
"","","","","","psychophysics","355","1057421","0.0-9.0-0.0-0.44","867","","j","","","","","","","","","","","","","key","j","16.665658333332978","853.3333333333334","476","./1_3_Stimuli/T_ambi40.png","自我","Image","他人","Mismatch","j","true","Formal"
"","","","","","psychophysics","356","1059522","0.0-9.0-0.0-0.45","943","","j","","","","","","","","","","","","","key","j","16.672271999999882","853.3333333333334","476","./1_3_Stimuli/C_ambi40.png","自我","Image","朋友","Mismatch","j","true","Formal"
"","","","","","psychophysics","357","1061558","0.0-9.0-0.0-0.46","879","","f","","","","","","","","","","","","","key","f","16.666289256198702","853.3333333333334","476","./1_3_Stimuli/T_ambi40.png","他人","Image","他人","Match","f","true","Formal"
"","","","","","psychophysics","358","1063706","0.0-9.0-0.0-0.47","996","","f","","","","","","","","","","","","","key","f","16.665921875001004","853.3333333333334","476","./1_3_Stimuli/C_ambi40.png","朋友","Image","朋友","Match","f","true","Formal"
"","","","","","psychophysics","359","1065691","0.0-9.0-0.0-0.48","828","","j","","","","","","","","","","","","","key","j","16.665661016948743","853.3333333333334","476","./1_3_Stimuli/T_ambi40.png","自我","Word","他人","Mismatch","j","true","Formal"
"","","","","","psychophysics","360","1068395","0.0-9.0-0.0-0.49","null","","null","","","","","","","","","","","","","key","null","16.665956521739385","853.3333333333334","476","./1_3_Stimuli/T_ambi40.png","他人","Image","他人","Match","f","false","Formal"
"","","","","","psychophysics","361","1070545","0.0-9.0-0.0-0.50","997","","j","","","","","","","","","","","","","key","j","16.666362204724614","853.3333333333334","476","./1_3_Stimuli/C_ambi40.png","他人","Word","朋友","Mismatch","j","true","Formal"
"","","","","","psychophysics","362","1072413","0.0-9.0-0.0-0.51","718","","f","","","","","","","","","","","","","key","f","16.66599099099141","853.3333333333334","476","./1_3_Stimuli/T_ambi40.png","他人","Word","他人","Match","f","true","Formal"
"","","","","","psychophysics","363","1074317","0.0-9.0-0.0-0.52","748","","f","","","","","","","","","","","","","key","f","16.665884955753203","853.3333333333334","476","./1_3_Stimuli/C_ambi40.png","朋友","Image","朋友","Match","f","true","Formal"
"","","","","","psychophysics","364","1075961","0.0-9.0-0.0-0.53","487","","f","","","","","","","","","","","","","key","f","16.66595876288658","853.3333333333334","476","./1_3_Stimuli/S_ambi40.png","自我","Image","自我","Match","f","true","Formal"
"","","","","","psychophysics","365","1078292","0.0-9.0-0.0-0.54","1179","","j","","","","","","","","","","","","","key","j","16.66573188405828","853.3333333333334","476","./1_3_Stimuli/S_ambi40.png","他人","Image","自我","Mismatch","j","true","Formal"
"","","","","","psychophysics","366","1080255","0.0-9.0-0.0-0.55","810","","f","","","","","","","","","","","","","key","f","16.666155172413585","853.3333333333334","476","./1_3_Stimuli/C_ambi40.png","朋友","Word","朋友","Match","f","true","Formal"
"","","","","","psychophysics","367","1082562","0.0-9.0-0.0-0.56","1151","","j","","","","","","","","","","","","","key","j","16.664282608694613","853.3333333333334","476","./1_3_Stimuli/C_ambi40.png","他人","Image","朋友","Mismatch","j","true","Formal"
"","","","","","psychophysics","368","1084602","0.0-9.0-0.0-0.57","887","","f","","","","","","","","","","","","","key","f","16.665859504131415","853.3333333333334","476","./1_3_Stimuli/T_ambi40.png","朋友","Word","他人","Mismatch","j","false","Formal"
"","","","","","psychophysics","369","1086807","0.0-9.0-0.0-0.58","1048","","f","","","","","","","","","","","","","key","f","16.666282442748503","853.3333333333334","476","./1_3_Stimuli/C_ambi40.png","朋友","Image","朋友","Match","f","true","Formal"
"","","","","","psychophysics","370","1088801","0.0-9.0-0.0-0.59","840","","f","","","","","","","","","","","","","key","f","16.67047899159673","853.3333333333334","476","./1_3_Stimuli/T_ambi40.png","他人","Image","他人","Match","f","true","Formal"
"","","","","","psychophysics","371","1091238","0.0-9.0-0.0-0.60","1277","","j","","","","","","","","","","","","","key","j","16.66568965517177","853.3333333333334","476","./1_3_Stimuli/C_ambi40.png","自我","Image","朋友","Mismatch","j","true","Formal"
"","","","","","psychophysics","372","1093368","0.0-9.0-0.0-0.61","974","","f","","","","","","","","","","","","","key","f","16.666102362204505","853.3333333333334","476","./1_3_Stimuli/S_ambi40.png","自我","Word","自我","Match","f","true","Formal"
"","","","","","psychophysics","373","1095176","0.0-9.0-0.0-0.62","654","","f","","","","","","","","","","","","","key","f","16.666205607476495","853.3333333333334","476","./1_3_Stimuli/C_ambi40.png","朋友","Word","朋友","Match","f","true","Formal"
"","","","","","psychophysics","374","1097147","0.0-9.0-0.0-0.63","820","","j","","","","","","","","","","","","","key","j","16.66514529914468","853.3333333333334","476","./1_3_Stimuli/S_ambi40.png","朋友","Word","自我","Mismatch","j","true","Formal"
"","","","","","psychophysics","375","1098881","0.0-9.0-0.0-0.64","581","","f","","","","","","","","","","","","","key","f","16.662475728154075","853.3333333333334","476","./1_3_Stimuli/S_ambi40.png","自我","Image","自我","Match","f","true","Formal"
"","","","","","psychophysics","376","1100492","0.0-9.0-0.0-0.65","459","","f","","","","","","","","","","","","","key","f","16.667600000000217","853.3333333333334","476","./1_3_Stimuli/S_ambi40.png","自我","Word","自我","Match","f","true","Formal"
"","","","","","psychophysics","377","1101997","0.0-9.0-0.0-0.66","353","","f","","","","","","","","","","","","","key","f","16.666122222223525","853.3333333333334","476","./1_3_Stimuli/S_ambi40.png","朋友","Image","自我","Mismatch","j","false","Formal"
"","","","","","psychophysics","378","1104120","0.0-9.0-0.0-0.67","969","","j","","","","","","","","","","","","","key","j","16.66535714285685","853.3333333333334","476","./1_3_Stimuli/C_ambi40.png","自我","Word","朋友","Mismatch","j","true","Formal"
"","","","","","psychophysics","379","1106017","0.0-9.0-0.0-0.68","739","","f","","","","","","","","","","","","","key","f","16.66685840707948","853.3333333333334","476","./1_3_Stimuli/T_ambi40.png","他人","Word","他人","Match","f","true","Formal"
"","","","","","psychophysics","380","1108314","0.0-9.0-0.0-0.69","1137","","j","","","","","","","","","","","","","key","j","16.666321167883797","853.3333333333334","476","./1_3_Stimuli/T_ambi40.png","朋友","Image","他人","Mismatch","j","true","Formal"
"","","","","","psychophysics","381","1110535","0.0-9.0-0.0-0.70","1059","","j","","","","","","","","","","","","","key","j","16.666189393940538","853.3333333333334","476","./1_3_Stimuli/S_ambi40.png","他人","Word","自我","Mismatch","j","true","Formal"
"","","","","","psychophysics","382","1112306","0.0-9.0-0.0-0.71","615","","f","","","","","","","","","","","","","key","f","16.666209523809986","853.3333333333334","476","./1_3_Stimuli/T_ambi40.png","自我","Image","他人","Mismatch","j","false","Formal"
"","","","","","psychophysics","383","1114280","0.0-9.0-0.0-0.72","822","","j","","","","","","","","","","","","","key","j","16.6660338983066","853.3333333333334","476","./1_3_Stimuli/T_ambi40.png","他人","Word","他人","Match","f","false","Formal"
"","","","","","psychophysics","384","1116167","0.0-9.0-0.0-0.73","731","","f","","","","","","","","","","","","","key","f","16.66560714285671","853.3333333333334","476","./1_3_Stimuli/S_ambi40.png","自我","Image","自我","Match","f","true","Formal"
"","","","","","psychophysics","385","1118247","0.0-9.0-0.0-0.74","922","","f","","","","","","","","","","","","","key","f","16.6658225806445","853.3333333333334","476","./1_3_Stimuli/C_ambi40.png","朋友","Word","朋友","Match","f","true","Formal"
"","","","","","psychophysics","386","1120165","0.0-9.0-0.0-0.75","761","","f","","","","","","","","","","","","","key","f","16.665842105262797","853.3333333333334","476","./1_3_Stimuli/C_ambi40.png","自我","Word","朋友","Mismatch","j","false","Formal"
"","","","","","psychophysics","387","1122657","0.0-9.0-0.0-0.76","1340","","f","","","","","","","","","","","","","key","f","16.665763513513877","853.3333333333334","476","./1_3_Stimuli/T_ambi40.png","他人","Image","他人","Match","f","true","Formal"
"","","","","","psychophysics","388","1124375","0.0-9.0-0.0-0.77","566","","f","","","","","","","","","","","","","key","f","16.66589215686134","853.3333333333334","476","./1_3_Stimuli/T_ambi40.png","他人","Word","他人","Match","f","true","Formal"
"","","","","","psychophysics","389","1126278","0.0-9.0-0.0-0.78","752","","f","","","","","","","","","","","","","key","f","16.66633628318457","853.3333333333334","476","./1_3_Stimuli/C_ambi40.png","朋友","Image","朋友","Match","f","true","Formal"
"","","","","","psychophysics","390","1128145","0.0-9.0-0.0-0.79","702","","j","","","","","","","","","","","","","key","j","16.666252252251446","853.3333333333334","476","./1_3_Stimuli/C_ambi40.png","他人","Word","朋友","Mismatch","j","true","Formal"
"","","","","","psychophysics","391","1130310","0.0-9.0-0.0-0.80","1007","","f","","","","","","","","","","","","","key","f","16.66603100775243","853.3333333333334","476","./1_3_Stimuli/S_ambi40.png","朋友","Image","自我","Mismatch","j","false","Formal"
"","","","","","psychophysics","392","1132122","0.0-9.0-0.0-0.81","654","","f","","","","","","","","","","","","","key","f","16.66550467289749","853.3333333333334","476","./1_3_Stimuli/S_ambi40.png","自我","Word","自我","Match","f","true","Formal"
"","","","","","psychophysics","393","1133936","0.0-9.0-0.0-0.82","661","","j","","","","","","","","","","","","","key","j","16.666027777776534","853.3333333333334","476","./1_3_Stimuli/S_ambi40.png","他人","Word","自我","Mismatch","j","true","Formal"
"","","","","","psychophysics","394","1135954","0.0-9.0-0.0-0.83","865","","j","","","","","","","","","","","","","key","j","16.666124999998527","853.3333333333334","476","./1_3_Stimuli/C_ambi40.png","他人","Image","朋友","Mismatch","j","true","Formal"
"","","","","","psychophysics","395","1137967","0.0-9.0-0.0-0.84","859","","f","","","","","","","","","","","","","key","f","16.666116666665765","853.3333333333334","476","./1_3_Stimuli/C_ambi40.png","自我","Image","朋友","Mismatch","j","false","Formal"
"","","","","","psychophysics","396","1139806","0.0-9.0-0.0-0.85","680","","j","","","","","","","","","","","","","key","j","16.66611926605575","853.3333333333334","476","./1_3_Stimuli/S_ambi40.png","朋友","Word","自我","Mismatch","j","true","Formal"
"","","","","","psychophysics","397","1141674","0.0-9.0-0.0-0.86","716","","f","","","","","","","","","","","","","key","f","16.666486486486317","853.3333333333334","476","./1_3_Stimuli/C_ambi40.png","朋友","Image","朋友","Match","f","true","Formal"
"","","","","","psychophysics","398","1143693","0.0-9.0-0.0-0.87","868","","f","","","","","","","","","","","","","key","f","16.665783333334062","853.3333333333334","476","./1_3_Stimuli/S_ambi40.png","自我","Image","自我","Match","f","true","Formal"
"","","","","","psychophysics","399","1145241","0.0-9.0-0.0-0.88","396","","f","","","","","","","","","","","","","key","f","16.665879120878813","853.3333333333334","476","./1_3_Stimuli/T_ambi40.png","自我","Word","他人","Mismatch","j","false","Formal"
"","","","","","psychophysics","400","1147929","0.0-9.0-0.0-0.89","1537","","j","","","","","","","","","","","","","key","j","16.665812500000175","853.3333333333334","476","./1_3_Stimuli/T_ambi40.png","朋友","Word","他人","Mismatch","j","true","Formal"
"","","","","","psychophysics","401","1150023","0.0-9.0-0.0-0.90","935","","j","","","","","","","","","","","","","key","j","16.665717741934536","853.3333333333334","476","./1_3_Stimuli/S_ambi40.png","他人","Image","自我","Mismatch","j","true","Formal"
"","","","","","psychophysics","402","1152727","0.0-9.0-0.0-0.91","1552","","j","","","","","","","","","","","","","key","j","16.665913043477172","853.3333333333334","476","./1_3_Stimuli/T_ambi40.png","自我","Image","他人","Mismatch","j","true","Formal"
"","","","","","psychophysics","403","1154948","0.0-9.0-0.0-0.92","1057","","j","","","","","","","","","","","","","key","j","16.664037878789134","853.3333333333334","476","./1_3_Stimuli/T_ambi40.png","他人","Image","他人","Match","f","false","Formal"
