"success","timeout","failed_images","failed_audio","failed_video","trial_type","trial_index","time_elapsed","internal_node_id","rt","stimulus","response","value","item_width_mm","item_height_mm","item_width_px","px2mm","view_dist_mm","item_width_deg","px2deg","scale_factor","win_width_deg","win_height_deg","view_history","response_type","key_press","avg_frame_time","center_x","center_y","image","word","target","valence","matchness","correct_response","correct","exp_condition"
"true","false","[]","[]","[]","preload","0","372","0.0-0.0","","","","","","","","","","","","","","","","","","","","","","","","","","","",""
"","","","","","html-keyboard-response","1","68673","0.0-1.0","68297","
     <p>您好，欢迎参加本次实验。</p>
     <p>为充分保障您的权利，请确保您已经知晓并同意《参与实验同意书》以及《数据公开知情同意书》。</p>
     <p>如果您未见过上述内容，请咨询实验员。</p>
     <p>如果您选择继续实验，则表示您已经清楚两份知情同意书的内容并同意。</p>
     <p> <div style = ""color: green""><按任意键至下页></div> </p>
     ","k","","","","","","","","","","","","","","","","","","","","","","","","",""
"","","","","","html-keyboard-response","2","71008","0.0-2.0-0.0","2335","
      <p>本实验首先需要您填写一些基本个人信息。</p>
      <p> <div style = ""color: green""><按任意键至下页></div></p>
      ","j","","","","","","","","","","","","","","","","","","","","","","","","",""
"","","","","","call-function","3","71010","0.0-2.0-1.0","","","","","","","","","","","","","","","","","","","","","","","","","","","",""
"","","","","","survey-html-form","4","91130","0.0-2.0-2.0","20117","","{""Q0"":""1001""}","","","","","","","","","","","","","","","","","","","","","","","","",""
"","","","","","html-button-response","5","92574","0.0-2.0-3.0","1442","<p style = 'color : white'>您的性别</p>","1","","","","","","","","","","","","","","","","","","","","","","","","",""
"","","","","","survey-html-form","6","98967","0.0-2.0-4.0","6391","","{""Q0"":""2002""}","","","","","","","","","","","","","","","","","","","","","","","","",""
"","","","","","survey-html-form","7","103032","0.0-2.0-5.0","4063","","{""Q0"":""5""}","","","","","","","","","","","","","","","","","","","","","","","","",""
"","","","","","virtual-chinrest","8","497003","0.0-3.0","393940","","","","85.6","53.98","468.6793420088218","5.472015354343835","522.06","9.373586840176435","50","0.8150561924976197","25.6","16","","","","","","","","","","","","","",""
"true","","","","","fullscreen","9","501064","0.0-4.0","","","","","","","","","","","","","","","","","","","","","","","","","","","",""
"","","","","","instructions","10","653010","0.0-5.0","151937","","","","","","","","","","","","","","[{""page_index"":0,""viewing_time"":33543},{""page_index"":1,""viewing_time"":93158},{""page_index"":2,""viewing_time"":15818},{""page_index"":3,""viewing_time"":9418}]","","","","","","","","","","","","",""
"","","","","","html-keyboard-response","11","656662","0.0-6.0","null","<count-down title=""""></count-down>","null","","","","","","","","","","","","","","","","","","","","","","","","",""
"","","","","","psychophysics","12","659381","0.0-7.0-0.0-0.0","null","","null","","","","","","","","","","","","","key","null","16.674000000000515","640","396","./1_3_Stimuli/T_ambi40.png","他人","Word","自我","Mismatch","f","false","Practice"
"","","","","","html-keyboard-response","13","659688","0.0-7.0-0.0-1.0","null","<span class='add_' style='color:yellow; font-size: 70px;'> 太慢! </span>","null","","","","","","","","","","","","","","","","","","","","","","","","","feedback"
"","","","","","psychophysics","14","661634","0.0-7.0-0.0-0.1","791","","j","","","","","","","","","","","","","key","j","16.67400000000008","640","396","./1_3_Stimuli/T_ambi40.png","朋友","Word","自我","Mismatch","f","false","Practice"
"","","","","","html-keyboard-response","15","661939","0.0-7.0-0.0-1.1","null","<span style='color:red; font-size: 70px;'>错误! </span>","null","","","","","","","","","","","","","","","","","","","","","","","","","feedback"
"","","","","","psychophysics","16","664172","0.0-7.0-0.0-0.2","1081","","j","","","","","","","","","","","","","key","j","16.67399999999995","640","396","./1_3_Stimuli/S_ambi40.png","他人","Word","朋友","Mismatch","f","false","Practice"
"","","","","","html-keyboard-response","17","664474","0.0-7.0-0.0-1.2","null","<span style='color:red; font-size: 70px;'>错误! </span>","null","","","","","","","","","","","","","","","","","","","","","","","","","feedback"
"","","","","","psychophysics","18","666438","0.0-7.0-0.0-0.3","812","","j","","","","","","","","","","","","","key","j","16.743198275862156","640","396","./1_3_Stimuli/T_ambi40.png","自我","Word","自我","Match","j","true","Practice"
"","","","","","html-keyboard-response","19","666743","0.0-7.0-0.0-1.3","null","<span style='color:GreenYellow; font-size: 70px;'>正确! </span>","null","","","","","","","","","","","","","","","","","","","","","","","","","feedback"
"","","","","","psychophysics","20","668627","0.0-7.0-0.0-0.4","732","","f","","","","","","","","","","","","","key","f","16.67400000000011","640","396","./1_3_Stimuli/T_ambi40.png","朋友","Image","自我","Mismatch","f","true","Practice"
"","","","","","html-keyboard-response","21","668932","0.0-7.0-0.0-1.4","null","<span style='color:GreenYellow; font-size: 70px;'>正确! </span>","null","","","","","","","","","","","","","","","","","","","","","","","","","feedback"
"","","","","","psychophysics","22","670793","0.0-7.0-0.0-0.5","708","","j","","","","","","","","","","","","","key","j","16.674000000000127","640","396","./1_3_Stimuli/T_ambi40.png","自我","Word","自我","Match","j","true","Practice"
"","","","","","html-keyboard-response","23","671095","0.0-7.0-0.0-1.5","null","<span style='color:GreenYellow; font-size: 70px;'>正确! </span>","null","","","","","","","","","","","","","","","","","","","","","","","","","feedback"
"","","","","","psychophysics","24","672767","0.0-7.0-0.0-0.6","518","","j","","","","","","","","","","","","","key","j","16.674000000000245","640","396","./1_3_Stimuli/T_ambi40.png","自我","Image","自我","Match","j","true","Practice"
"","","","","","html-keyboard-response","25","673074","0.0-7.0-0.0-1.6","null","<span style='color:GreenYellow; font-size: 70px;'>正确! </span>","null","","","","","","","","","","","","","","","","","","","","","","","","","feedback"
"","","","","","psychophysics","26","674634","0.0-7.0-0.0-0.7","407","","j","","","","","","","","","","","","","key","j","16.674000000000333","640","396","./1_3_Stimuli/T_ambi40.png","自我","Image","自我","Match","j","true","Practice"
"","","","","","html-keyboard-response","27","674937","0.0-7.0-0.0-1.7","null","<span style='color:GreenYellow; font-size: 70px;'>正确! </span>","null","","","","","","","","","","","","","","","","","","","","","","","","","feedback"
"","","","","","psychophysics","28","677247","0.0-7.0-0.0-0.8","1159","","j","","","","","","","","","","","","","key","j","16.67637226277415","640","396","./1_3_Stimuli/S_ambi40.png","他人","Image","朋友","Mismatch","f","false","Practice"
"","","","","","html-keyboard-response","29","677553","0.0-7.0-0.0-1.8","null","<span style='color:red; font-size: 70px;'>错误! </span>","null","","","","","","","","","","","","","","","","","","","","","","","","","feedback"
"","","","","","psychophysics","30","680259","0.0-7.0-0.0-0.9","null","","null","","","","","","","","","","","","","key","null","16.673999999999793","640","396","./1_3_Stimuli/C_ambi40.png","他人","Image","他人","Match","j","false","Practice"
"","","","","","html-keyboard-response","31","680561","0.0-7.0-0.0-1.9","null","<span class='add_' style='color:yellow; font-size: 70px;'> 太慢! </span>","null","","","","","","","","","","","","","","","","","","","","","","","","","feedback"
"","","","","","psychophysics","32","682380","0.0-7.0-0.0-0.10","667","","f","","","","","","","","","","","","","key","f","16.674000000000145","640","396","./1_3_Stimuli/S_ambi40.png","自我","Word","朋友","Mismatch","f","true","Practice"
"","","","","","html-keyboard-response","33","682682","0.0-7.0-0.0-1.10","null","<span style='color:GreenYellow; font-size: 70px;'>正确! </span>","null","","","","","","","","","","","","","","","","","","","","","","","","","feedback"
"","","","","","psychophysics","34","684896","0.0-7.0-0.0-0.11","1061","","f","","","","","","","","","","","","","key","f","16.673999999999957","640","396","./1_3_Stimuli/C_ambi40.png","自我","Image","他人","Mismatch","f","true","Practice"
"","","","","","html-keyboard-response","35","685199","0.0-7.0-0.0-1.11","null","<span style='color:GreenYellow; font-size: 70px;'>正确! </span>","null","","","","","","","","","","","","","","","","","","","","","","","","","feedback"
"","","","","","psychophysics","36","687904","0.0-7.0-0.0-0.12","null","","null","","","","","","","","","","","","","key","null","16.67663354037318","640","396","./1_3_Stimuli/S_ambi40.png","朋友","Word","朋友","Match","j","false","Practice"
"","","","","","html-keyboard-response","37","688208","0.0-7.0-0.0-1.12","null","<span class='add_' style='color:yellow; font-size: 70px;'> 太慢! </span>","null","","","","","","","","","","","","","","","","","","","","","","","","","feedback"
"","","","","","psychophysics","38","690487","0.0-7.0-0.0-0.13","1127","","f","","","","","","","","","","","","","key","f","16.673999999999932","640","396","./1_3_Stimuli/C_ambi40.png","朋友","Image","他人","Mismatch","f","true","Practice"
"","","","","","html-keyboard-response","39","690792","0.0-7.0-0.0-1.13","null","<span style='color:GreenYellow; font-size: 70px;'>正确! </span>","null","","","","","","","","","","","","","","","","","","","","","","","","","feedback"
"","","","","","psychophysics","40","693336","0.0-7.0-0.0-0.14","1390","","f","","","","","","","","","","","","","key","f","16.67399999999984","640","396","./1_3_Stimuli/C_ambi40.png","他人","Image","他人","Match","j","false","Practice"
"","","","","","html-keyboard-response","41","693639","0.0-7.0-0.0-1.14","null","<span style='color:red; font-size: 70px;'>错误! </span>","null","","","","","","","","","","","","","","","","","","","","","","","","","feedback"
"","","","","","psychophysics","42","696345","0.0-7.0-0.0-0.15","null","","null","","","","","","","","","","","","","key","null","16.67588819875758","640","396","./1_3_Stimuli/C_ambi40.png","朋友","Word","他人","Mismatch","f","false","Practice"
"","","","","","html-keyboard-response","43","696651","0.0-7.0-0.0-1.15","null","<span class='add_' style='color:yellow; font-size: 70px;'> 太慢! </span>","null","","","","","","","","","","","","","","","","","","","","","","","","","feedback"
"","","","","","psychophysics","44","698573","0.0-7.0-0.0-0.16","770","","f","","","","","","","","","","","","","key","f","16.67400000000008","640","396","./1_3_Stimuli/T_ambi40.png","他人","Image","自我","Mismatch","f","true","Practice"
"","","","","","html-keyboard-response","45","698876","0.0-7.0-0.0-1.16","null","<span style='color:GreenYellow; font-size: 70px;'>正确! </span>","null","","","","","","","","","","","","","","","","","","","","","","","","","feedback"
"","","","","","psychophysics","46","701188","0.0-7.0-0.0-0.17","1159","","f","","","","","","","","","","","","","key","f","16.67399999999991","640","396","./1_3_Stimuli/C_ambi40.png","他人","Word","他人","Match","j","false","Practice"
"","","","","","html-keyboard-response","47","701492","0.0-7.0-0.0-1.17","null","<span style='color:red; font-size: 70px;'>错误! </span>","null","","","","","","","","","","","","","","","","","","","","","","","","","feedback"
"","","","","","psychophysics","48","704195","0.0-7.0-0.0-0.18","null","","null","","","","","","","","","","","","","key","null","16.674000000000515","640","396","./1_3_Stimuli/C_ambi40.png","他人","Word","他人","Match","j","false","Practice"
"","","","","","html-keyboard-response","49","704501","0.0-7.0-0.0-1.18","null","<span class='add_' style='color:yellow; font-size: 70px;'> 太慢! </span>","null","","","","","","","","","","","","","","","","","","","","","","","","","feedback"
"","","","","","psychophysics","50","706791","0.0-7.0-0.0-0.19","1138","","f","","","","","","","","","","","","","key","f","16.6762352941176","640","396","./1_3_Stimuli/S_ambi40.png","朋友","Image","朋友","Match","j","false","Practice"
"","","","","","html-keyboard-response","51","707096","0.0-7.0-0.0-1.19","null","<span style='color:red; font-size: 70px;'>错误! </span>","null","","","","","","","","","","","","","","","","","","","","","","","","","feedback"
"","","","","","psychophysics","52","709799","0.0-7.0-0.0-0.20","null","","null","","","","","","","","","","","","","key","null","16.673999999999793","640","396","./1_3_Stimuli/S_ambi40.png","朋友","Word","朋友","Match","j","false","Practice"
"","","","","","html-keyboard-response","53","710104","0.0-7.0-0.0-1.20","null","<span class='add_' style='color:yellow; font-size: 70px;'> 太慢! </span>","null","","","","","","","","","","","","","","","","","","","","","","","","","feedback"
"","","","","","psychophysics","54","712180","0.0-7.0-0.0-0.21","924","","f","","","","","","","","","","","","","key","f","16.674000000000014","640","396","./1_3_Stimuli/S_ambi40.png","自我","Image","朋友","Mismatch","f","true","Practice"
"","","","","","html-keyboard-response","55","712484","0.0-7.0-0.0-1.21","null","<span style='color:GreenYellow; font-size: 70px;'>正确! </span>","null","","","","","","","","","","","","","","","","","","","","","","","","","feedback"
"","","","","","psychophysics","56","714762","0.0-7.0-0.0-0.22","1126","","j","","","","","","","","","","","","","key","j","16.673999999999925","640","396","./1_3_Stimuli/S_ambi40.png","朋友","Image","朋友","Match","j","true","Practice"
"","","","","","html-keyboard-response","57","715063","0.0-7.0-0.0-1.22","null","<span style='color:GreenYellow; font-size: 70px;'>正确! </span>","null","","","","","","","","","","","","","","","","","","","","","","","","","feedback"
"","","","","","psychophysics","58","717032","0.0-7.0-0.0-0.23","816","","f","","","","","","","","","","","","","key","f","16.67711111111069","640","396","./1_3_Stimuli/C_ambi40.png","自我","Word","他人","Mismatch","f","true","Practice"
"","","","","","html-keyboard-response","59","717336","0.0-7.0-0.0-1.23","null","<span style='color:GreenYellow; font-size: 70px;'>正确! </span>","null","","","","","","","","","","","","","","","","","","","","","","","","","feedback"
"","","","","","html-keyboard-response","60","725549","0.0-7.0-1.0-0.0","8212","<style>.context{color:white; font-size: 35px; line-height:40px}</style>                        <div><p class='context'>您正确回答了50% 的试次。</p><p class='context'>您的平均反应时为806毫秒。</p><p> <div style = 'color: green'><按空格键至下页></div></p>"," ","","","","","","","","","","","","","","","","","","","","","","","","",""
"","","","","","instructions","61","749430","0.0-7.0-1.0-1.0","23878","","","","","","","","","","","","","","[{""page_index"":0,""viewing_time"":2725},{""page_index"":1,""viewing_time"":19688},{""page_index"":2,""viewing_time"":1465}]","","","","","","","","","","","","",""
"","","","","","psychophysics","62","751605","0.0-7.1-0.1-0.24","1021","","f","","","","","","","","","","","","","key","f","16.67399999999997","640","396","./1_3_Stimuli/C_ambi40.png","他人","Word","他人","Match","j","false","Practice"
"","","","","","html-keyboard-response","63","751913","0.0-7.1-0.1-1.24","null","<span style='color:red; font-size: 70px;'>错误! </span>","null","","","","","","","","","","","","","","","","","","","","","","","","","feedback"
"","","","","","psychophysics","64","754226","0.0-7.1-0.1-0.25","1158","","f","","","","","","","","","","","","","key","f","16.673999999999918","640","396","./1_3_Stimuli/S_ambi40.png","他人","Image","朋友","Mismatch","f","true","Practice"
"","","","","","html-keyboard-response","65","754531","0.0-7.1-0.1-1.25","null","<span style='color:GreenYellow; font-size: 70px;'>正确! </span>","null","","","","","","","","","","","","","","","","","","","","","","","","","feedback"
"","","","","","psychophysics","66","757003","0.0-7.1-0.1-0.26","1316","","j","","","","","","","","","","","","","key","j","16.674000000000643","640","396","./1_3_Stimuli/C_ambi40.png","朋友","Word","他人","Mismatch","f","false","Practice"
"","","","","","html-keyboard-response","67","757306","0.0-7.1-0.1-1.26","null","<span style='color:red; font-size: 70px;'>错误! </span>","null","","","","","","","","","","","","","","","","","","","","","","","","","feedback"
"","","","","","psychophysics","68","760001","0.0-7.1-0.1-0.27","1542","","f","","","","","","","","","","","","","key","f","16.6224099378881","640","396","./1_3_Stimuli/S_ambi40.png","他人","Word","朋友","Mismatch","f","true","Practice"
"","","","","","html-keyboard-response","69","760307","0.0-7.1-0.1-1.27","null","<span class='add_' style='color:yellow; font-size: 70px;'> 太慢! </span>","null","","","","","","","","","","","","","","","","","","","","","","","","","feedback"
"","","","","","psychophysics","70","762145","0.0-7.1-0.1-0.28","685","","j","","","","","","","","","","","","","key","j","16.674000000000138","640","396","./1_3_Stimuli/T_ambi40.png","自我","Word","自我","Match","j","true","Practice"
"","","","","","html-keyboard-response","71","762449","0.0-7.1-0.1-1.28","null","<span style='color:GreenYellow; font-size: 70px;'>正确! </span>","null","","","","","","","","","","","","","","","","","","","","","","","","","feedback"
"","","","","","psychophysics","72","764591","0.0-7.1-0.1-0.29","990","","f","","","","","","","","","","","","","key","f","16.673999999999985","640","396","./1_3_Stimuli/C_ambi40.png","自我","Image","他人","Mismatch","f","true","Practice"
"","","","","","html-keyboard-response","73","764894","0.0-7.1-0.1-1.29","null","<span style='color:GreenYellow; font-size: 70px;'>正确! </span>","null","","","","","","","","","","","","","","","","","","","","","","","","","feedback"
"","","","","","psychophysics","74","766838","0.0-7.1-0.1-0.30","791","","f","","","","","","","","","","","","","key","f","16.67400000000008","640","396","./1_3_Stimuli/T_ambi40.png","朋友","Image","自我","Mismatch","f","true","Practice"
"","","","","","html-keyboard-response","75","767145","0.0-7.1-0.1-1.30","null","<span style='color:GreenYellow; font-size: 70px;'>正确! </span>","null","","","","","","","","","","","","","","","","","","","","","","","","","feedback"
"","","","","","psychophysics","76","769109","0.0-7.1-0.1-0.31","810","","j","","","","","","","","","","","","","key","j","16.676974137931868","640","396","./1_3_Stimuli/T_ambi40.png","自我","Image","自我","Match","j","true","Practice"
"","","","","","html-keyboard-response","77","769410","0.0-7.1-0.1-1.31","null","<span style='color:GreenYellow; font-size: 70px;'>正确! </span>","null","","","","","","","","","","","","","","","","","","","","","","","","","feedback"
"","","","","","psychophysics","78","771558","0.0-7.1-0.1-0.32","994","","f","","","","","","","","","","","","","key","f","16.673999999999978","640","396","./1_3_Stimuli/S_ambi40.png","自我","Image","朋友","Mismatch","f","true","Practice"
"","","","","","html-keyboard-response","79","771859","0.0-7.1-0.1-1.32","null","<span style='color:GreenYellow; font-size: 70px;'>正确! </span>","null","","","","","","","","","","","","","","","","","","","","","","","","","feedback"
"","","","","","psychophysics","80","774426","0.0-7.1-0.1-0.33","1414","","f","","","","","","","","","","","","","key","f","16.67399999999983","640","396","./1_3_Stimuli/C_ambi40.png","他人","Image","他人","Match","j","false","Practice"
"","","","","","html-keyboard-response","81","774730","0.0-7.1-0.1-1.33","null","<span style='color:red; font-size: 70px;'>错误! </span>","null","","","","","","","","","","","","","","","","","","","","","","","","","feedback"
"","","","","","psychophysics","82","777428","0.0-7.1-0.1-0.34","1547","","j","","","","","","","","","","","","","key","j","16.674000000000515","640","396","./1_3_Stimuli/C_ambi40.png","朋友","Image","他人","Mismatch","f","false","Practice"
"","","","","","html-keyboard-response","83","777734","0.0-7.1-0.1-1.34","null","<span class='add_' style='color:yellow; font-size: 70px;'> 太慢! </span>","null","","","","","","","","","","","","","","","","","","","","","","","","","feedback"
"","","","","","psychophysics","84","779594","0.0-7.1-0.1-0.35","707","","f","","","","","","","","","","","","","key","f","16.677136363636237","640","396","./1_3_Stimuli/C_ambi40.png","自我","Word","他人","Mismatch","f","true","Practice"
"","","","","","html-keyboard-response","85","779898","0.0-7.1-0.1-1.35","null","<span style='color:GreenYellow; font-size: 70px;'>正确! </span>","null","","","","","","","","","","","","","","","","","","","","","","","","","feedback"
"","","","","","psychophysics","86","782561","0.0-7.1-0.1-0.36","1506","","j","","","","","","","","","","","","","key","j","16.6739999999998","640","396","./1_3_Stimuli/S_ambi40.png","朋友","Image","朋友","Match","j","true","Practice"
"","","","","","html-keyboard-response","87","782867","0.0-7.1-0.1-1.36","null","<span class='add_' style='color:yellow; font-size: 70px;'> 太慢! </span>","null","","","","","","","","","","","","","","","","","","","","","","","","","feedback"
"","","","","","psychophysics","88","785401","0.0-7.1-0.1-0.37","1380","","f","","","","","","","","","","","","","key","f","16.67400000000061","640","396","./1_3_Stimuli/C_ambi40.png","他人","Word","他人","Match","j","false","Practice"
"","","","","","html-keyboard-response","89","785704","0.0-7.1-0.1-1.37","null","<span style='color:red; font-size: 70px;'>错误! </span>","null","","","","","","","","","","","","","","","","","","","","","","","","","feedback"
"","","","","","psychophysics","90","788409","0.0-7.1-0.1-0.38","null","","null","","","","","","","","","","","","","key","null","16.676150000000053","640","396","./1_3_Stimuli/C_ambi40.png","他人","Image","他人","Match","j","false","Practice"
"","","","","","html-keyboard-response","91","788716","0.0-7.1-0.1-1.38","null","<span class='add_' style='color:yellow; font-size: 70px;'> 太慢! </span>","null","","","","","","","","","","","","","","","","","","","","","","","","","feedback"
"","","","","","psychophysics","92","790617","0.0-7.1-0.1-0.39","749","","f","","","","","","","","","","","","","key","f","16.6740000000001","640","396","./1_3_Stimuli/S_ambi40.png","自我","Word","朋友","Mismatch","f","true","Practice"
"","","","","","html-keyboard-response","93","790923","0.0-7.1-0.1-1.39","null","<span style='color:GreenYellow; font-size: 70px;'>正确! </span>","null","","","","","","","","","","","","","","","","","","","","","","","","","feedback"
"","","","","","psychophysics","94","792978","0.0-7.1-0.1-0.40","901","","f","","","","","","","","","","","","","key","f","16.674000000000014","640","396","./1_3_Stimuli/T_ambi40.png","他人","Word","自我","Mismatch","f","true","Practice"
"","","","","","html-keyboard-response","95","793284","0.0-7.1-0.1-1.40","null","<span style='color:GreenYellow; font-size: 70px;'>正确! </span>","null","","","","","","","","","","","","","","","","","","","","","","","","","feedback"
"","","","","","psychophysics","96","795653","0.0-7.1-0.1-0.41","1217","","j","","","","","","","","","","","","","key","j","16.673999999999893","640","396","./1_3_Stimuli/S_ambi40.png","朋友","Word","朋友","Match","j","true","Practice"
"","","","","","html-keyboard-response","97","795957","0.0-7.1-0.1-1.41","null","<span style='color:GreenYellow; font-size: 70px;'>正确! </span>","null","","","","","","","","","","","","","","","","","","","","","","","","","feedback"
"","","","","","psychophysics","98","797819","0.0-7.1-0.1-0.42","706","","f","","","","","","","","","","","","","key","f","16.674000000000117","640","396","./1_3_Stimuli/T_ambi40.png","朋友","Word","自我","Mismatch","f","true","Practice"
"","","","","","html-keyboard-response","99","798125","0.0-7.1-0.1-1.42","null","<span style='color:GreenYellow; font-size: 70px;'>正确! </span>","null","","","","","","","","","","","","","","","","","","","","","","","","","feedback"
"","","","","","psychophysics","100","800187","0.0-7.1-0.1-0.43","907","","j","","","","","","","","","","","","","key","j","16.67700813008128","640","396","./1_3_Stimuli/T_ambi40.png","自我","Word","自我","Match","j","true","Practice"
"","","","","","html-keyboard-response","101","800489","0.0-7.1-0.1-1.43","null","<span style='color:GreenYellow; font-size: 70px;'>正确! </span>","null","","","","","","","","","","","","","","","","","","","","","","","","","feedback"
"","","","","","psychophysics","102","802546","0.0-7.1-0.1-0.44","905","","j","","","","","","","","","","","","","key","j","16.674000000000014","640","396","./1_3_Stimuli/T_ambi40.png","自我","Image","自我","Match","j","true","Practice"
"","","","","","html-keyboard-response","103","802850","0.0-7.1-0.1-1.44","null","<span style='color:GreenYellow; font-size: 70px;'>正确! </span>","null","","","","","","","","","","","","","","","","","","","","","","","","","feedback"
"","","","","","psychophysics","104","804679","0.0-7.1-0.1-0.45","673","","f","","","","","","","","","","","","","key","f","16.674000000000145","640","396","./1_3_Stimuli/T_ambi40.png","他人","Image","自我","Mismatch","f","true","Practice"
"","","","","","html-keyboard-response","105","804985","0.0-7.1-0.1-1.45","null","<span style='color:GreenYellow; font-size: 70px;'>正确! </span>","null","","","","","","","","","","","","","","","","","","","","","","","","","feedback"
"","","","","","psychophysics","106","806860","0.0-7.1-0.1-0.46","725","","j","","","","","","","","","","","","","key","j","16.674000000000117","640","396","./1_3_Stimuli/S_ambi40.png","朋友","Image","朋友","Match","j","true","Practice"
"","","","","","html-keyboard-response","107","807165","0.0-7.1-0.1-1.46","null","<span style='color:GreenYellow; font-size: 70px;'>正确! </span>","null","","","","","","","","","","","","","","","","","","","","","","","","","feedback"
"","","","","","psychophysics","108","809023","0.0-7.1-0.1-0.47","705","","j","","","","","","","","","","","","","key","j","16.67690909090875","640","396","./1_3_Stimuli/S_ambi40.png","朋友","Word","朋友","Match","j","true","Practice"
"","","","","","html-keyboard-response","109","809328","0.0-7.1-0.1-1.47","null","<span style='color:GreenYellow; font-size: 70px;'>正确! </span>","null","","","","","","","","","","","","","","","","","","","","","","","","","feedback"
"","","","","","html-keyboard-response","110","813188","0.0-7.1-1.1-0.1","3859","<style>.context{color:white; font-size: 35px; line-height:40px}</style>                        <div><p class='context'>您正确回答了75% 的试次。</p><p class='context'>您的平均反应时为926毫秒。</p><p> <div style = 'color: green'><按空格键至下页></div></p>"," ","","","","","","","","","","","","","","","","","","","","","","","","",""
"","","","","","instructions","111","836049","0.0-7.1-1.1-1.1","22858","","","","","","","","","","","","","","[{""page_index"":0,""viewing_time"":2095},{""page_index"":1,""viewing_time"":18430},{""page_index"":2,""viewing_time"":2332}]","","","","","","","","","","","","",""
"","","","","","psychophysics","112","838363","0.0-7.2-0.2-0.48","1159","","j","","","","","","","","","","","","","key","j","16.673999999999918","640","396","./1_3_Stimuli/S_ambi40.png","朋友","Image","朋友","Match","j","true","Practice"
"","","","","","html-keyboard-response","113","838664","0.0-7.2-0.2-1.48","null","<span style='color:GreenYellow; font-size: 70px;'>正确! </span>","null","","","","","","","","","","","","","","","","","","","","","","","","","feedback"
"","","","","","psychophysics","114","840508","0.0-7.2-0.2-0.49","694","","j","","","","","","","","","","","","","key","j","16.674000000000138","640","396","./1_3_Stimuli/S_ambi40.png","朋友","Word","朋友","Match","j","true","Practice"
"","","","","","html-keyboard-response","115","840812","0.0-7.2-0.2-1.49","null","<span style='color:GreenYellow; font-size: 70px;'>正确! </span>","null","","","","","","","","","","","","","","","","","","","","","","","","","feedback"
"","","","","","psychophysics","116","842586","0.0-7.2-0.2-0.50","620","","j","","","","","","","","","","","","","key","j","16.674000000000166","640","396","./1_3_Stimuli/T_ambi40.png","自我","Image","自我","Match","j","true","Practice"
"","","","","","html-keyboard-response","117","842890","0.0-7.2-0.2-1.50","null","<span style='color:GreenYellow; font-size: 70px;'>正确! </span>","null","","","","","","","","","","","","","","","","","","","","","","","","","feedback"
"","","","","","psychophysics","118","844669","0.0-7.2-0.2-0.51","625","","j","","","","","","","","","","","","","key","j","16.59887735849084","640","396","./1_3_Stimuli/S_ambi40.png","他人","Word","朋友","Mismatch","f","false","Practice"
"","","","","","html-keyboard-response","119","844974","0.0-7.2-0.2-1.51","null","<span style='color:red; font-size: 70px;'>错误! </span>","null","","","","","","","","","","","","","","","","","","","","","","","","","feedback"
"","","","","","psychophysics","120","846569","0.0-7.2-0.2-0.52","440","","j","","","","","","","","","","","","","key","j","16.67400000000031","640","396","./1_3_Stimuli/T_ambi40.png","自我","Word","自我","Match","j","true","Practice"
"","","","","","html-keyboard-response","121","846874","0.0-7.2-0.2-1.52","null","<span style='color:GreenYellow; font-size: 70px;'>正确! </span>","null","","","","","","","","","","","","","","","","","","","","","","","","","feedback"
"","","","","","psychophysics","122","848762","0.0-7.2-0.2-0.53","736","","f","","","","","","","","","","","","","key","f","16.6740000000001","640","396","./1_3_Stimuli/T_ambi40.png","朋友","Word","自我","Mismatch","f","true","Practice"
"","","","","","html-keyboard-response","123","849067","0.0-7.2-0.2-1.53","null","<span style='color:GreenYellow; font-size: 70px;'>正确! </span>","null","","","","","","","","","","","","","","","","","","","","","","","","","feedback"
"","","","","","psychophysics","124","851340","0.0-7.2-0.2-0.54","1120","","f","","","","","","","","","","","","","key","f","16.673999999999932","640","396","./1_3_Stimuli/C_ambi40.png","他人","Image","他人","Match","j","false","Practice"
"","","","","","html-keyboard-response","125","851645","0.0-7.2-0.2-1.54","null","<span style='color:red; font-size: 70px;'>错误! </span>","null","","","","","","","","","","","","","","","","","","","","","","","","","feedback"
"","","","","","psychophysics","126","854169","0.0-7.2-0.2-0.55","1373","","f","","","","","","","","","","","","","key","f","16.621473333333462","640","396","./1_3_Stimuli/S_ambi40.png","他人","Image","朋友","Mismatch","f","true","Practice"
"","","","","","html-keyboard-response","127","854475","0.0-7.2-0.2-1.55","null","<span style='color:GreenYellow; font-size: 70px;'>正确! </span>","null","","","","","","","","","","","","","","","","","","","","","","","","","feedback"
"","","","","","psychophysics","128","857105","0.0-7.2-0.2-0.56","1476","","f","","","","","","","","","","","","","key","f","16.67400000000056","640","396","./1_3_Stimuli/C_ambi40.png","朋友","Word","他人","Mismatch","f","true","Practice"
"","","","","","html-keyboard-response","129","857411","0.0-7.2-0.2-1.56","null","<span style='color:GreenYellow; font-size: 70px;'>正确! </span>","null","","","","","","","","","","","","","","","","","","","","","","","","","feedback"
"","","","","","psychophysics","130","859338","0.0-7.2-0.2-0.57","775","","j","","","","","","","","","","","","","key","j","16.67400000000009","640","396","./1_3_Stimuli/T_ambi40.png","自我","Word","自我","Match","j","true","Practice"
"","","","","","html-keyboard-response","131","859643","0.0-7.2-0.2-1.57","null","<span style='color:GreenYellow; font-size: 70px;'>正确! </span>","null","","","","","","","","","","","","","","","","","","","","","","","","","feedback"
"","","","","","psychophysics","132","861514","0.0-7.2-0.2-0.58","719","","f","","","","","","","","","","","","","key","f","16.674000000000117","640","396","./1_3_Stimuli/T_ambi40.png","他人","Word","自我","Mismatch","f","true","Practice"
"","","","","","html-keyboard-response","133","861816","0.0-7.2-0.2-1.58","null","<span style='color:GreenYellow; font-size: 70px;'>正确! </span>","null","","","","","","","","","","","","","","","","","","","","","","","","","feedback"
"","","","","","psychophysics","134","864276","0.0-7.2-0.2-0.59","1308","","f","","","","","","","","","","","","","key","f","16.72564383561656","640","396","./1_3_Stimuli/C_ambi40.png","他人","Word","他人","Match","j","false","Practice"
"","","","","","html-keyboard-response","135","864580","0.0-7.2-0.2-1.59","null","<span style='color:red; font-size: 70px;'>错误! </span>","null","","","","","","","","","","","","","","","","","","","","","","","","","feedback"
"","","","","","psychophysics","136","866492","0.0-7.2-0.2-0.60","756","","f","","","","","","","","","","","","","key","f","16.67400000000009","640","396","./1_3_Stimuli/C_ambi40.png","他人","Word","他人","Match","j","false","Practice"
"","","","","","html-keyboard-response","137","866797","0.0-7.2-0.2-1.60","null","<span style='color:red; font-size: 70px;'>错误! </span>","null","","","","","","","","","","","","","","","","","","","","","","","","","feedback"
"","","","","","psychophysics","138","869015","0.0-7.2-0.2-0.61","1064","","f","","","","","","","","","","","","","key","f","16.673999999999957","640","396","./1_3_Stimuli/T_ambi40.png","他人","Image","自我","Mismatch","f","true","Practice"
"","","","","","html-keyboard-response","139","869319","0.0-7.2-0.2-1.61","null","<span style='color:GreenYellow; font-size: 70px;'>正确! </span>","null","","","","","","","","","","","","","","","","","","","","","","","","","feedback"
"","","","","","psychophysics","140","871414","0.0-7.2-0.2-0.62","942","","f","","","","","","","","","","","","","key","f","16.674000000000007","640","396","./1_3_Stimuli/T_ambi40.png","朋友","Image","自我","Mismatch","f","true","Practice"
"","","","","","html-keyboard-response","141","871718","0.0-7.2-0.2-1.62","null","<span style='color:GreenYellow; font-size: 70px;'>正确! </span>","null","","","","","","","","","","","","","","","","","","","","","","","","","feedback"
"","","","","","psychophysics","142","874188","0.0-7.2-0.2-0.63","1314","","j","","","","","","","","","","","","","key","j","16.67623129251752","640","396","./1_3_Stimuli/S_ambi40.png","朋友","Image","朋友","Match","j","true","Practice"
"","","","","","html-keyboard-response","143","874493","0.0-7.2-0.2-1.63","null","<span style='color:GreenYellow; font-size: 70px;'>正确! </span>","null","","","","","","","","","","","","","","","","","","","","","","","","","feedback"
"","","","","","psychophysics","144","876573","0.0-7.2-0.2-0.64","928","","f","","","","","","","","","","","","","key","f","16.674000000000014","640","396","./1_3_Stimuli/C_ambi40.png","自我","Image","他人","Mismatch","f","true","Practice"
"","","","","","html-keyboard-response","145","876876","0.0-7.2-0.2-1.64","null","<span style='color:GreenYellow; font-size: 70px;'>正确! </span>","null","","","","","","","","","","","","","","","","","","","","","","","","","feedback"
"","","","","","psychophysics","146","879582","0.0-7.2-0.2-0.65","null","","null","","","","","","","","","","","","","key","null","16.673999999999793","640","396","./1_3_Stimuli/C_ambi40.png","他人","Image","他人","Match","j","false","Practice"
"","","","","","html-keyboard-response","147","879884","0.0-7.2-0.2-1.65","null","<span class='add_' style='color:yellow; font-size: 70px;'> 太慢! </span>","null","","","","","","","","","","","","","","","","","","","","","","","","","feedback"
"","","","","","psychophysics","148","881880","0.0-7.2-0.2-0.66","842","","j","","","","","","","","","","","","","key","j","16.674000000000056","640","396","./1_3_Stimuli/S_ambi40.png","朋友","Word","朋友","Match","j","true","Practice"
"","","","","","html-keyboard-response","149","882185","0.0-7.2-0.2-1.66","null","<span style='color:GreenYellow; font-size: 70px;'>正确! </span>","null","","","","","","","","","","","","","","","","","","","","","","","","","feedback"
"","","","","","psychophysics","150","884155","0.0-7.2-0.2-0.67","817","","f","","","","","","","","","","","","","key","f","16.67758974358917","640","396","./1_3_Stimuli/S_ambi40.png","自我","Image","朋友","Mismatch","f","true","Practice"
"","","","","","html-keyboard-response","151","884460","0.0-7.2-0.2-1.67","null","<span style='color:GreenYellow; font-size: 70px;'>正确! </span>","null","","","","","","","","","","","","","","","","","","","","","","","","","feedback"
"","","","","","psychophysics","152","886286","0.0-7.2-0.2-0.68","675","","f","","","","","","","","","","","","","key","f","16.674000000000145","640","396","./1_3_Stimuli/C_ambi40.png","自我","Word","他人","Mismatch","f","true","Practice"
"","","","","","html-keyboard-response","153","886593","0.0-7.2-0.2-1.68","null","<span style='color:GreenYellow; font-size: 70px;'>正确! </span>","null","","","","","","","","","","","","","","","","","","","","","","","","","feedback"
"","","","","","psychophysics","154","888975","0.0-7.2-0.2-0.69","1230","","f","","","","","","","","","","","","","key","f","16.67399999999989","640","396","./1_3_Stimuli/C_ambi40.png","朋友","Image","他人","Mismatch","f","true","Practice"
"","","","","","html-keyboard-response","155","889280","0.0-7.2-0.2-1.69","null","<span style='color:GreenYellow; font-size: 70px;'>正确! </span>","null","","","","","","","","","","","","","","","","","","","","","","","","","feedback"
"","","","","","psychophysics","156","891042","0.0-7.2-0.2-0.70","611","","j","","","","","","","","","","","","","key","j","16.67399999999907","640","396","./1_3_Stimuli/T_ambi40.png","自我","Image","自我","Match","j","true","Practice"
"","","","","","html-keyboard-response","157","891348","0.0-7.2-0.2-1.70","null","<span style='color:GreenYellow; font-size: 70px;'>正确! </span>","null","","","","","","","","","","","","","","","","","","","","","","","","","feedback"
"","","","","","psychophysics","158","893260","0.0-7.2-0.2-0.71","757","","f","","","","","","","","","","","","","key","f","16.67399999999907","640","396","./1_3_Stimuli/S_ambi40.png","自我","Word","朋友","Mismatch","f","true","Practice"
"","","","","","html-keyboard-response","159","893565","0.0-7.2-0.2-1.71","null","<span style='color:GreenYellow; font-size: 70px;'>正确! </span>","null","","","","","","","","","","","","","","","","","","","","","","","","","feedback"
"","","","","","html-keyboard-response","160","898278","0.0-7.2-1.2-0.2","4710","<style>.context{color:white; font-size: 35px; line-height:40px}</style>                        <div><p class='context'>您正确回答了79% 的试次。</p><p class='context'>您的平均反应时为904毫秒。</p><p> <div style = 'color: green'><按空格键至下页></div></p>"," ","","","","","","","","","","","","","","","","","","","","","","","","",""
"","","","","","instructions","161","956362","0.0-7.2-1.2-1.2","58080","","","","","","","","","","","","","","[{""page_index"":0,""viewing_time"":41322},{""page_index"":1,""viewing_time"":14568},{""page_index"":2,""viewing_time"":2190}]","","","","","","","","","","","","",""
"","","","","","psychophysics","162","958543","0.0-7.3-0.3-0.72","1026","","j","","","","","","","","","","","","","key","j","16.67399999999997","640","396","./1_3_Stimuli/S_ambi40.png","朋友","Image","朋友","Match","j","true","Practice"
"","","","","","html-keyboard-response","163","958845","0.0-7.3-0.3-1.72","null","<span style='color:GreenYellow; font-size: 70px;'>正确! </span>","null","","","","","","","","","","","","","","","","","","","","","","","","","feedback"
"","","","","","psychophysics","164","960973","0.0-7.3-0.3-0.73","976","","j","","","","","","","","","","","","","key","j","16.673999999999992","640","396","./1_3_Stimuli/C_ambi40.png","他人","Image","他人","Match","j","true","Practice"
"","","","","","html-keyboard-response","165","961278","0.0-7.3-0.3-1.73","null","<span style='color:GreenYellow; font-size: 70px;'>正确! </span>","null","","","","","","","","","","","","","","","","","","","","","","","","","feedback"
"","","","","","psychophysics","166","963348","0.0-7.3-0.3-0.74","915","","j","","","","","","","","","","","","","key","j","16.674000000000014","640","396","./1_3_Stimuli/C_ambi40.png","他人","Word","他人","Match","j","true","Practice"
"","","","","","html-keyboard-response","167","963651","0.0-7.3-0.3-1.74","null","<span style='color:GreenYellow; font-size: 70px;'>正确! </span>","null","","","","","","","","","","","","","","","","","","","","","","","","","feedback"
"","","","","","psychophysics","168","965479","0.0-7.3-0.3-0.75","676","","f","","","","","","","","","","","","","key","f","16.732351851852233","640","396","./1_3_Stimuli/T_ambi40.png","朋友","Image","自我","Mismatch","f","true","Practice"
"","","","","","html-keyboard-response","169","965783","0.0-7.3-0.3-1.75","null","<span style='color:GreenYellow; font-size: 70px;'>正确! </span>","null","","","","","","","","","","","","","","","","","","","","","","","","","feedback"
"","","","","","psychophysics","170","967614","0.0-7.3-0.3-0.76","677","","j","","","","","","","","","","","","","key","j","16.674000000000145","640","396","./1_3_Stimuli/T_ambi40.png","自我","Image","自我","Match","j","true","Practice"
"","","","","","html-keyboard-response","171","967921","0.0-7.3-0.3-1.76","null","<span style='color:GreenYellow; font-size: 70px;'>正确! </span>","null","","","","","","","","","","","","","","","","","","","","","","","","","feedback"
"","","","","","psychophysics","172","969917","0.0-7.3-0.3-0.77","843","","f","","","","","","","","","","","","","key","f","16.674000000000056","640","396","./1_3_Stimuli/S_ambi40.png","自我","Image","朋友","Mismatch","f","true","Practice"
"","","","","","html-keyboard-response","173","970220","0.0-7.3-0.3-1.77","null","<span style='color:GreenYellow; font-size: 70px;'>正确! </span>","null","","","","","","","","","","","","","","","","","","","","","","","","","feedback"
"","","","","","psychophysics","174","972247","0.0-7.3-0.3-0.78","875","","f","","","","","","","","","","","","","key","f","16.67400000000004","640","396","./1_3_Stimuli/T_ambi40.png","他人","Word","自我","Mismatch","f","true","Practice"
"","","","","","html-keyboard-response","175","972553","0.0-7.3-0.3-1.78","null","<span style='color:GreenYellow; font-size: 70px;'>正确! </span>","null","","","","","","","","","","","","","","","","","","","","","","","","","feedback"
"","","","","","psychophysics","176","974882","0.0-7.3-0.3-0.79","1177","","f","","","","","","","","","","","","","key","f","16.676302158273757","640","396","./1_3_Stimuli/T_ambi40.png","朋友","Word","自我","Mismatch","f","true","Practice"
"","","","","","html-keyboard-response","177","975188","0.0-7.3-0.3-1.79","null","<span style='color:GreenYellow; font-size: 70px;'>正确! </span>","null","","","","","","","","","","","","","","","","","","","","","","","","","feedback"
"","","","","","psychophysics","178","977513","0.0-7.3-0.3-0.80","1173","","f","","","","","","","","","","","","","key","f","16.67399999999991","640","396","./1_3_Stimuli/C_ambi40.png","朋友","Word","他人","Mismatch","f","true","Practice"
"","","","","","html-keyboard-response","179","977818","0.0-7.3-0.3-1.80","null","<span style='color:GreenYellow; font-size: 70px;'>正确! </span>","null","","","","","","","","","","","","","","","","","","","","","","","","","feedback"
"","","","","","psychophysics","180","979491","0.0-7.3-0.3-0.81","521","","j","","","","","","","","","","","","","key","j","16.674000000000234","640","396","./1_3_Stimuli/T_ambi40.png","自我","Image","自我","Match","j","true","Practice"
"","","","","","html-keyboard-response","181","979795","0.0-7.3-0.3-1.81","null","<span style='color:GreenYellow; font-size: 70px;'>正确! </span>","null","","","","","","","","","","","","","","","","","","","","","","","","","feedback"
"","","","","","psychophysics","182","981968","0.0-7.3-0.3-0.82","1021","","j","","","","","","","","","","","","","key","j","16.67399999999997","640","396","./1_3_Stimuli/S_ambi40.png","朋友","Word","朋友","Match","j","true","Practice"
"","","","","","html-keyboard-response","183","982272","0.0-7.3-0.3-1.82","null","<span style='color:GreenYellow; font-size: 70px;'>正确! </span>","null","","","","","","","","","","","","","","","","","","","","","","","","","feedback"
"","","","","","psychophysics","184","984058","0.0-7.3-0.3-0.83","635","","f","","","","","","","","","","","","","key","f","16.674000000000156","640","396","./1_3_Stimuli/S_ambi40.png","他人","Image","朋友","Mismatch","f","true","Practice"
"","","","","","html-keyboard-response","185","984363","0.0-7.3-0.3-1.83","null","<span style='color:GreenYellow; font-size: 70px;'>正确! </span>","null","","","","","","","","","","","","","","","","","","","","","","","","","feedback"
"","","","","","psychophysics","186","986672","0.0-7.3-0.3-0.84","1155","","j","","","","","","","","","","","","","key","j","16.676540145985307","640","396","./1_3_Stimuli/C_ambi40.png","他人","Image","他人","Match","j","true","Practice"
"","","","","","html-keyboard-response","187","986976","0.0-7.3-0.3-1.84","null","<span style='color:GreenYellow; font-size: 70px;'>正确! </span>","null","","","","","","","","","","","","","","","","","","","","","","","","","feedback"
"","","","","","psychophysics","188","988577","0.0-7.3-0.3-0.85","448","","j","","","","","","","","","","","","","key","j","16.67400000000028","640","396","./1_3_Stimuli/T_ambi40.png","自我","Word","自我","Match","j","true","Practice"
"","","","","","html-keyboard-response","189","988881","0.0-7.3-0.3-1.85","null","<span style='color:GreenYellow; font-size: 70px;'>正确! </span>","null","","","","","","","","","","","","","","","","","","","","","","","","","feedback"
"","","","","","psychophysics","190","990957","0.0-7.3-0.3-0.86","922","","j","","","","","","","","","","","","","key","j","16.674000000000014","640","396","./1_3_Stimuli/C_ambi40.png","他人","Word","他人","Match","j","true","Practice"
"","","","","","html-keyboard-response","191","991262","0.0-7.3-0.3-1.86","null","<span style='color:GreenYellow; font-size: 70px;'>正确! </span>","null","","","","","","","","","","","","","","","","","","","","","","","","","feedback"
"","","","","","psychophysics","192","992996","0.0-7.3-0.3-0.87","581","","f","","","","","","","","","","","","","key","f","16.6740000000002","640","396","./1_3_Stimuli/C_ambi40.png","朋友","Image","他人","Mismatch","f","true","Practice"
"","","","","","html-keyboard-response","193","993302","0.0-7.3-0.3-1.87","null","<span style='color:GreenYellow; font-size: 70px;'>正确! </span>","null","","","","","","","","","","","","","","","","","","","","","","","","","feedback"
"","","","","","psychophysics","194","995093","0.0-7.3-0.3-0.88","637","","f","","","","","","","","","","","","","key","f","16.67723584905671","640","396","./1_3_Stimuli/S_ambi40.png","自我","Word","朋友","Mismatch","f","true","Practice"
"","","","","","html-keyboard-response","195","995399","0.0-7.3-0.3-1.88","null","<span style='color:GreenYellow; font-size: 70px;'>正确! </span>","null","","","","","","","","","","","","","","","","","","","","","","","","","feedback"
"","","","","","psychophysics","196","997194","0.0-7.3-0.3-0.89","643","","f","","","","","","","","","","","","","key","f","16.67399999999907","640","396","./1_3_Stimuli/C_ambi40.png","自我","Word","他人","Mismatch","f","true","Practice"
"","","","","","html-keyboard-response","197","997499","0.0-7.3-0.3-1.89","null","<span style='color:GreenYellow; font-size: 70px;'>正确! </span>","null","","","","","","","","","","","","","","","","","","","","","","","","","feedback"
"","","","","","psychophysics","198","999481","0.0-7.3-0.3-0.90","829","","j","","","","","","","","","","","","","key","j","16.67399999999907","640","396","./1_3_Stimuli/S_ambi40.png","朋友","Image","朋友","Match","j","true","Practice"
"","","","","","html-keyboard-response","199","999784","0.0-7.3-0.3-1.90","null","<span style='color:GreenYellow; font-size: 70px;'>正确! </span>","null","","","","","","","","","","","","","","","","","","","","","","","","","feedback"
"","","","","","psychophysics","200","1001469","0.0-7.3-0.3-0.91","532","","f","","","","","","","","","","","","","key","f","16.67399999999907","640","396","./1_3_Stimuli/S_ambi40.png","朋友","Word","朋友","Match","j","false","Practice"
"","","","","","html-keyboard-response","201","1001774","0.0-7.3-0.3-1.91","null","<span style='color:red; font-size: 70px;'>错误! </span>","null","","","","","","","","","","","","","","","","","","","","","","","","","feedback"
"","","","","","psychophysics","202","1003782","0.0-7.3-0.3-0.92","857","","f","","","","","","","","","","","","","key","f","16.674000000000046","640","396","./1_3_Stimuli/T_ambi40.png","他人","Image","自我","Mismatch","f","true","Practice"
"","","","","","html-keyboard-response","203","1004088","0.0-7.3-0.3-1.92","null","<span style='color:GreenYellow; font-size: 70px;'>正确! </span>","null","","","","","","","","","","","","","","","","","","","","","","","","","feedback"
"","","","","","psychophysics","204","1005955","0.0-7.3-0.3-0.93","714","","f","","","","","","","","","","","","","key","f","16.677845454545142","640","396","./1_3_Stimuli/C_ambi40.png","自我","Image","他人","Mismatch","f","true","Practice"
"","","","","","html-keyboard-response","205","1006259","0.0-7.3-0.3-1.93","null","<span style='color:GreenYellow; font-size: 70px;'>正确! </span>","null","","","","","","","","","","","","","","","","","","","","","","","","","feedback"
"","","","","","psychophysics","206","1008525","0.0-7.3-0.3-0.94","1111","","f","","","","","","","","","","","","","key","f","16.67399999999994","640","396","./1_3_Stimuli/S_ambi40.png","他人","Word","朋友","Mismatch","f","true","Practice"
"","","","","","html-keyboard-response","207","1008831","0.0-7.3-0.3-1.94","null","<span style='color:GreenYellow; font-size: 70px;'>正确! </span>","null","","","","","","","","","","","","","","","","","","","","","","","","","feedback"
"","","","","","psychophysics","208","1010587","0.0-7.3-0.3-0.95","605","","j","","","","","","","","","","","","","key","j","16.674000000000177","640","396","./1_3_Stimuli/T_ambi40.png","自我","Word","自我","Match","j","true","Practice"
"","","","","","html-keyboard-response","209","1010892","0.0-7.3-0.3-1.95","null","<span style='color:GreenYellow; font-size: 70px;'>正确! </span>","null","","","","","","","","","","","","","","","","","","","","","","","","","feedback"
"","","","","","html-keyboard-response","210","1093144","0.0-8.0","82246","<style>.context{color:white; font-size: 35px; line-height:40px}</style>                          <div><p class='context'>您正确回答了96% 的试次。</p><p class='context'>您的平均反应时为827毫秒。</p><p class='context'>恭喜您完成练习。现在请休息3~5分钟。</p><p class='context'>之后，按任意键进入正式实验。需要注意的是，正式实验将不再提供反应是否正确的反馈。</p><p class='footer' style='font-size: 35px; line-height:40px;'>请在进入正式实验实验之前将您的<span style='color: lightgreen;'>食指</span>放在电脑键盘的相应键位上进行按键。</p>"," ","","","","","","","","","","","","","","","","","","","","","","","","",""
"","","","","","psychophysics","211","1094909","0.0-9.0-0.0-0.0","611","","j","","","","","","","","","","","","","key","j","16.653428571429547","640","396","./1_3_Stimuli/T_ambi40.png","自我","Word","自我","Match","j","true","Formal"
"","","","","","psychophysics","212","1097359","0.0-9.0-0.0-0.1","1298","","j","","","","","","","","","","","","","key","j","16.67399999999907","640","396","./1_3_Stimuli/S_ambi40.png","他人","Image","朋友","Mismatch","f","false","Formal"
"","","","","","psychophysics","213","1099121","0.0-9.0-0.0-0.2","610","","f","","","","","","","","","","","","","key","f","16.674000000000177","640","396","./1_3_Stimuli/C_ambi40.png","他人","Image","他人","Match","j","false","Formal"
"","","","","","psychophysics","214","1101063","0.0-9.0-0.0-0.3","788","","f","","","","","","","","","","","","","key","f","16.67400000000008","640","396","./1_3_Stimuli/T_ambi40.png","朋友","Word","自我","Mismatch","f","true","Formal"
"","","","","","psychophysics","215","1103530","0.0-9.0-0.0-0.4","1315","","f","","","","","","","","","","","","","key","f","16.684918367348256","640","396","./1_3_Stimuli/S_ambi40.png","朋友","Word","朋友","Match","j","false","Formal"
"","","","","","psychophysics","216","1105289","0.0-9.0-0.0-0.5","606","","f","","","","","","","","","","","","","key","f","16.674000000001307","640","396","./1_3_Stimuli/C_ambi40.png","自我","Word","他人","Mismatch","f","true","Formal"
"","","","","","psychophysics","217","1107031","0.0-9.0-0.0-0.6","589","","j","","","","","","","","","","","","","key","j","16.674000000001307","640","396","./1_3_Stimuli/T_ambi40.png","自我","Word","自我","Match","j","true","Formal"
"","","","","","psychophysics","218","1109258","0.0-9.0-0.0-0.7","1072","","f","","","","","","","","","","","","","key","f","16.67400000000083","640","396","./1_3_Stimuli/C_ambi40.png","朋友","Word","他人","Mismatch","f","true","Formal"
"","","","","","psychophysics","219","1111322","0.0-9.0-0.0-0.8","910","","j","","","","","","","","","","","","","key","j","16.674000000000014","640","396","./1_3_Stimuli/S_ambi40.png","朋友","Word","朋友","Match","j","true","Formal"
"","","","","","psychophysics","220","1113686","0.0-9.0-0.0-0.9","1210","","f","","","","","","","","","","","","","key","f","16.676928571428704","640","396","./1_3_Stimuli/S_ambi40.png","他人","Word","朋友","Mismatch","f","true","Formal"
"","","","","","psychophysics","221","1115361","0.0-9.0-0.0-0.10","521","","j","","","","","","","","","","","","","key","j","16.674000000000245","640","396","./1_3_Stimuli/T_ambi40.png","自我","Image","自我","Match","j","true","Formal"
"","","","","","psychophysics","222","1117089","0.0-9.0-0.0-0.11","572","","f","","","","","","","","","","","","","key","f","16.674000000001353","640","396","./1_3_Stimuli/S_ambi40.png","朋友","Image","朋友","Match","j","false","Formal"
"","","","","","psychophysics","223","1119424","0.0-9.0-0.0-0.12","1182","","f","","","","","","","","","","","","","key","f","16.673999999999907","640","396","./1_3_Stimuli/C_ambi40.png","朋友","Image","他人","Mismatch","f","true","Formal"
"","","","","","psychophysics","224","1121292","0.0-9.0-0.0-0.13","714","","f","","","","","","","","","","","","","key","f","16.674000000000117","640","396","./1_3_Stimuli/S_ambi40.png","自我","Word","朋友","Mismatch","f","true","Formal"
"","","","","","psychophysics","225","1123226","0.0-9.0-0.0-0.14","781","","f","","","","","","","","","","","","","key","f","16.67400000000008","640","396","./1_3_Stimuli/C_ambi40.png","自我","Image","他人","Mismatch","f","true","Formal"
"","","","","","psychophysics","226","1125931","0.0-9.0-0.0-0.15","null","","null","","","","","","","","","","","","","key","null","16.676204968943775","640","396","./1_3_Stimuli/C_ambi40.png","他人","Word","他人","Match","j","false","Formal"
"","","","","","psychophysics","227","1128025","0.0-9.0-0.0-0.16","940","","f","","","","","","","","","","","","","key","f","16.67399999999907","640","396","./1_3_Stimuli/T_ambi40.png","朋友","Image","自我","Mismatch","f","true","Formal"
"","","","","","psychophysics","228","1129963","0.0-9.0-0.0-0.17","787","","f","","","","","","","","","","","","","key","f","16.67400000000008","640","396","./1_3_Stimuli/S_ambi40.png","自我","Image","朋友","Mismatch","f","true","Formal"
"","","","","","psychophysics","229","1132263","0.0-9.0-0.0-0.18","1149","","j","","","","","","","","","","","","","key","j","16.673999999999918","640","396","./1_3_Stimuli/C_ambi40.png","他人","Word","他人","Match","j","true","Formal"
"","","","","","psychophysics","230","1134064","0.0-9.0-0.0-0.19","648","","j","","","","","","","","","","","","","key","j","16.67687850467269","640","396","./1_3_Stimuli/T_ambi40.png","自我","Image","自我","Match","j","true","Formal"
"","","","","","psychophysics","231","1135835","0.0-9.0-0.0-0.20","616","","f","","","","","","","","","","","","","key","f","16.674000000000177","640","396","./1_3_Stimuli/T_ambi40.png","他人","Word","自我","Mismatch","f","true","Formal"
"","","","","","psychophysics","232","1138114","0.0-9.0-0.0-0.21","1124","","f","","","","","","","","","","","","","key","f","16.67400000000078","640","396","./1_3_Stimuli/T_ambi40.png","他人","Image","自我","Mismatch","f","true","Formal"
"","","","","","psychophysics","233","1140151","0.0-9.0-0.0-0.22","886","","j","","","","","","","","","","","","","key","j","16.67400000000003","640","396","./1_3_Stimuli/S_ambi40.png","朋友","Image","朋友","Match","j","true","Formal"
"","","","","","psychophysics","234","1142351","0.0-9.0-0.0-0.23","1048","","j","","","","","","","","","","","","","key","j","16.673999999999957","640","396","./1_3_Stimuli/C_ambi40.png","他人","Image","他人","Match","j","true","Formal"
"","","","","","psychophysics","235","1144335","0.0-9.0-0.0-0.24","832","","j","","","","","","","","","","","","","key","j","16.67655084745848","640","396","./1_3_Stimuli/C_ambi40.png","他人","Word","他人","Match","j","true","Formal"
"","","","","","psychophysics","236","1146103","0.0-9.0-0.0-0.25","616","","f","","","","","","","","","","","","","key","f","16.674000000000177","640","396","./1_3_Stimuli/T_ambi40.png","他人","Word","自我","Mismatch","f","true","Formal"
"","","","","","psychophysics","237","1148438","0.0-9.0-0.0-0.26","1183","","f","","","","","","","","","","","","","key","f","16.673999999999907","640","396","./1_3_Stimuli/S_ambi40.png","他人","Word","朋友","Mismatch","f","true","Formal"
"","","","","","psychophysics","238","1150327","0.0-9.0-0.0-0.27","736","","j","","","","","","","","","","","","","key","j","16.674000000001147","640","396","./1_3_Stimuli/T_ambi40.png","自我","Word","自我","Match","j","true","Formal"
"","","","","","psychophysics","239","1152337","0.0-9.0-0.0-0.28","853","","j","","","","","","","","","","","","","key","j","16.67400000000101","640","396","./1_3_Stimuli/C_ambi40.png","他人","Word","他人","Match","j","true","Formal"
"","","","","","psychophysics","240","1154170","0.0-9.0-0.0-0.29","682","","f","","","","","","","","","","","","","key","f","16.677385321100576","640","396","./1_3_Stimuli/T_ambi40.png","他人","Image","自我","Mismatch","f","true","Formal"
"","","","","","psychophysics","241","1155915","0.0-9.0-0.0-0.30","593","","j","","","","","","","","","","","","","key","j","16.6740000000002","640","396","./1_3_Stimuli/T_ambi40.png","自我","Image","自我","Match","j","true","Formal"
"","","","","","psychophysics","242","1157958","0.0-9.0-0.0-0.31","888","","j","","","","","","","","","","","","","key","j","16.67400000000003","640","396","./1_3_Stimuli/C_ambi40.png","他人","Image","他人","Match","j","true","Formal"
"","","","","","psychophysics","243","1159936","0.0-9.0-0.0-0.32","826","","j","","","","","","","","","","","","","key","j","16.67400000000104","640","396","./1_3_Stimuli/S_ambi40.png","朋友","Word","朋友","Match","j","true","Formal"
"","","","","","psychophysics","244","1161879","0.0-9.0-0.0-0.33","791","","j","","","","","","","","","","","","","key","j","16.67400000000008","640","396","./1_3_Stimuli/S_ambi40.png","朋友","Image","朋友","Match","j","true","Formal"
"","","","","","psychophysics","245","1163583","0.0-9.0-0.0-0.34","550","","f","","","","","","","","","","","","","key","f","16.677178217821968","640","396","./1_3_Stimuli/S_ambi40.png","自我","Image","朋友","Mismatch","f","true","Formal"
"","","","","","psychophysics","246","1165323","0.0-9.0-0.0-0.35","586","","j","","","","","","","","","","","","","key","j","16.6740000000002","640","396","./1_3_Stimuli/T_ambi40.png","朋友","Word","自我","Mismatch","f","false","Formal"
"","","","","","psychophysics","247","1167420","0.0-9.0-0.0-0.36","944","","f","","","","","","","","","","","","","key","f","16.67399999999907","640","396","./1_3_Stimuli/S_ambi40.png","自我","Word","朋友","Mismatch","f","true","Formal"
"","","","","","psychophysics","248","1169318","0.0-9.0-0.0-0.37","745","","j","","","","","","","","","","","","","key","j","16.6740000000001","640","396","./1_3_Stimuli/S_ambi40.png","朋友","Image","朋友","Match","j","true","Formal"
"","","","","","psychophysics","249","1171600","0.0-9.0-0.0-0.38","1131","","f","","","","","","","","","","","","","key","f","16.673999999999932","640","396","./1_3_Stimuli/T_ambi40.png","朋友","Image","自我","Mismatch","f","true","Formal"
"","","","","","psychophysics","250","1173707","0.0-9.0-0.0-0.39","952","","f","","","","","","","","","","","","","key","f","16.676752000000327","640","396","./1_3_Stimuli/S_ambi40.png","他人","Image","朋友","Mismatch","f","true","Formal"
"","","","","","psychophysics","251","1175538","0.0-9.0-0.0-0.40","677","","j","","","","","","","","","","","","","key","j","16.674000000001225","640","396","./1_3_Stimuli/C_ambi40.png","他人","Image","他人","Match","j","true","Formal"
"","","","","","psychophysics","252","1177184","0.0-9.0-0.0-0.41","492","","f","","","","","","","","","","","","","key","f","16.674000000001445","640","396","./1_3_Stimuli/C_ambi40.png","自我","Word","他人","Mismatch","f","true","Formal"
"","","","","","psychophysics","253","1178859","0.0-9.0-0.0-0.42","520","","j","","","","","","","","","","","","","key","j","16.674000000000245","640","396","./1_3_Stimuli/T_ambi40.png","自我","Image","自我","Match","j","true","Formal"
"","","","","","psychophysics","254","1180548","0.0-9.0-0.0-0.43","534","","j","","","","","","","","","","","","","key","j","16.67399999999907","640","396","./1_3_Stimuli/T_ambi40.png","自我","Word","自我","Match","j","true","Formal"
"","","","","","psychophysics","255","1182413","0.0-9.0-0.0-0.44","709","","f","","","","","","","","","","","","","key","f","16.67399999999907","640","396","./1_3_Stimuli/C_ambi40.png","自我","Image","他人","Mismatch","f","true","Formal"
"","","","","","psychophysics","256","1184101","0.0-9.0-0.0-0.45","533","","j","","","","","","","","","","","","","key","j","16.67746000000043","640","396","./1_3_Stimuli/S_ambi40.png","朋友","Word","朋友","Match","j","true","Formal"
"","","","","","psychophysics","257","1185907","0.0-9.0-0.0-0.46","652","","f","","","","","","","","","","","","","key","f","16.674000000001225","640","396","./1_3_Stimuli/C_ambi40.png","朋友","Word","他人","Mismatch","f","true","Formal"
"","","","","","psychophysics","258","1187683","0.0-9.0-0.0-0.47","620","","f","","","","","","","","","","","","","key","f","16.674000000000177","640","396","./1_3_Stimuli/C_ambi40.png","朋友","Image","他人","Mismatch","f","true","Formal"
"","","","","","psychophysics","259","1189951","0.0-9.0-0.0-0.48","1114","","j","","","","","","","","","","","","","key","j","16.673999999999932","640","396","./1_3_Stimuli/S_ambi40.png","朋友","Image","朋友","Match","j","true","Formal"
"","","","","","psychophysics","260","1191776","0.0-9.0-0.0-0.49","671","","f","","","","","","","","","","","","","key","f","16.674000000001225","640","396","./1_3_Stimuli/T_ambi40.png","朋友","Image","自我","Mismatch","f","true","Formal"
"","","","","","psychophysics","261","1194489","0.0-9.0-0.0-0.50","null","","null","","","","","","","","","","","","","key","null","16.6765527950299","640","396","./1_3_Stimuli/C_ambi40.png","朋友","Image","他人","Mismatch","f","false","Formal"
"","","","","","psychophysics","262","1196172","0.0-9.0-0.0-0.51","532","","f","","","","","","","","","","","","","key","f","16.67399999999907","640","396","./1_3_Stimuli/C_ambi40.png","自我","Word","他人","Mismatch","f","true","Formal"
"","","","","","psychophysics","263","1198245","0.0-9.0-0.0-0.52","921","","j","","","","","","","","","","","","","key","j","16.674000000000014","640","396","./1_3_Stimuli/C_ambi40.png","他人","Word","他人","Match","j","true","Formal"
"","","","","","psychophysics","264","1200565","0.0-9.0-0.0-0.53","1166","","f","","","","","","","","","","","","","key","f","16.674000000000756","640","396","./1_3_Stimuli/S_ambi40.png","他人","Image","朋友","Mismatch","f","true","Formal"
"","","","","","psychophysics","265","1203276","0.0-9.0-0.0-0.54","null","","null","","","","","","","","","","","","","key","null","16.673999999999793","640","396","./1_3_Stimuli/S_ambi40.png","他人","Word","朋友","Mismatch","f","false","Formal"
"","","","","","psychophysics","266","1204930","0.0-9.0-0.0-0.55","499","","j","","","","","","","","","","","","","key","j","16.676969387756223","640","396","./1_3_Stimuli/T_ambi40.png","自我","Word","自我","Match","j","true","Formal"
"","","","","","psychophysics","267","1206736","0.0-9.0-0.0-0.56","653","","j","","","","","","","","","","","","","key","j","16.674000000000156","640","396","./1_3_Stimuli/S_ambi40.png","朋友","Image","朋友","Match","j","true","Formal"
"","","","","","psychophysics","268","1208946","0.0-9.0-0.0-0.57","1055","","f","","","","","","","","","","","","","key","f","16.67399999999907","640","396","./1_3_Stimuli/T_ambi40.png","他人","Image","自我","Mismatch","f","true","Formal"
"","","","","","psychophysics","269","1211069","0.0-9.0-0.0-0.58","972","","f","","","","","","","","","","","","","key","f","16.67399999999907","640","396","./1_3_Stimuli/T_ambi40.png","朋友","Word","自我","Mismatch","f","true","Formal"
"","","","","","psychophysics","270","1213567","0.0-9.0-0.0-0.59","1346","","f","","","","","","","","","","","","","key","f","16.67399999999985","640","396","./1_3_Stimuli/T_ambi40.png","他人","Word","自我","Mismatch","f","true","Formal"
"","","","","","psychophysics","271","1215427","0.0-9.0-0.0-0.60","706","","f","","","","","","","","","","","","","key","f","16.67729999999812","640","396","./1_3_Stimuli/S_ambi40.png","自我","Image","朋友","Mismatch","f","true","Formal"
"","","","","","psychophysics","272","1217129","0.0-9.0-0.0-0.61","549","","j","","","","","","","","","","","","","key","j","16.67400000000022","640","396","./1_3_Stimuli/T_ambi40.png","自我","Image","自我","Match","j","true","Formal"
"","","","","","psychophysics","273","1219293","0.0-9.0-0.0-0.62","1010","","f","","","","","","","","","","","","","key","f","16.67399999999907","640","396","./1_3_Stimuli/S_ambi40.png","朋友","Word","朋友","Match","j","false","Formal"
"","","","","","psychophysics","274","1221396","0.0-9.0-0.0-0.63","949","","j","","","","","","","","","","","","","key","j","16.674","640","396","./1_3_Stimuli/T_ambi40.png","自我","Word","自我","Match","j","true","Formal"
"","","","","","psychophysics","275","1223514","0.0-9.0-0.0-0.64","966","","j","","","","","","","","","","","","","key","j","16.674","640","396","./1_3_Stimuli/S_ambi40.png","朋友","Word","朋友","Match","j","true","Formal"
"","","","","","psychophysics","276","1225255","0.0-9.0-0.0-0.65","582","","j","","","","","","","","","","","","","key","j","16.676980769232614","640","396","./1_3_Stimuli/C_ambi40.png","他人","Image","他人","Match","j","true","Formal"
"","","","","","psychophysics","277","1227025","0.0-9.0-0.0-0.66","618","","j","","","","","","","","","","","","","key","j","16.674000000000177","640","396","./1_3_Stimuli/C_ambi40.png","他人","Word","他人","Match","j","true","Formal"
"","","","","","psychophysics","278","1228701","0.0-9.0-0.0-0.67","525","","j","","","","","","","","","","","","","key","j","16.674000000000245","640","396","./1_3_Stimuli/T_ambi40.png","自我","Image","自我","Match","j","true","Formal"
"","","","","","psychophysics","279","1230913","0.0-9.0-0.0-0.68","1056","","j","","","","","","","","","","","","","key","j","16.673999999999957","640","396","./1_3_Stimuli/C_ambi40.png","朋友","Word","他人","Mismatch","f","false","Formal"
"","","","","","psychophysics","280","1233618","0.0-9.0-0.0-0.69","null","","null","","","","","","","","","","","","","key","null","16.673999999999793","640","396","./1_3_Stimuli/S_ambi40.png","自我","Word","朋友","Mismatch","f","false","Formal"
"","","","","","psychophysics","281","1235502","0.0-9.0-0.0-0.70","733","","f","","","","","","","","","","","","","key","f","16.677306306307194","640","396","./1_3_Stimuli/C_ambi40.png","自我","Image","他人","Mismatch","f","true","Formal"
"","","","","","psychophysics","282","1238121","0.0-9.0-0.0-0.71","1465","","j","","","","","","","","","","","","","key","j","16.67400000000056","640","396","./1_3_Stimuli/C_ambi40.png","他人","Image","他人","Match","j","true","Formal"
"","","","","","psychophysics","283","1239955","0.0-9.0-0.0-0.72","682","","f","","","","","","","","","","","","","key","f","16.67399999999907","640","396","./1_3_Stimuli/T_ambi40.png","他人","Word","自我","Mismatch","f","true","Formal"
"","","","","","psychophysics","284","1241854","0.0-9.0-0.0-0.73","744","","j","","","","","","","","","","","","","key","j","16.6740000000001","640","396","./1_3_Stimuli/S_ambi40.png","朋友","Image","朋友","Match","j","true","Formal"
"","","","","","psychophysics","285","1244103","0.0-9.0-0.0-0.74","1095","","j","","","","","","","","","","","","","key","j","16.676417910448734","640","396","./1_3_Stimuli/C_ambi40.png","他人","Word","他人","Match","j","true","Formal"
"","","","","","psychophysics","286","1245823","0.0-9.0-0.0-0.75","565","","j","","","","","","","","","","","","","key","j","16.674000000001353","640","396","./1_3_Stimuli/C_ambi40.png","他人","Image","他人","Match","j","true","Formal"
"","","","","","psychophysics","287","1247894","0.0-9.0-0.0-0.76","919","","j","","","","","","","","","","","","","key","j","16.674000000000014","640","396","./1_3_Stimuli/S_ambi40.png","朋友","Image","朋友","Match","j","true","Formal"
"","","","","","psychophysics","288","1249475","0.0-9.0-0.0-0.77","426","","j","","","","","","","","","","","","","key","j","16.67399999999907","640","396","./1_3_Stimuli/T_ambi40.png","自我","Word","自我","Match","j","true","Formal"
"","","","","","psychophysics","289","1251591","0.0-9.0-0.0-0.78","964","","f","","","","","","","","","","","","","key","f","16.674000000000916","640","396","./1_3_Stimuli/T_ambi40.png","朋友","Image","自我","Mismatch","f","true","Formal"
"","","","","","psychophysics","290","1254008","0.0-9.0-0.0-0.79","1264","","f","","","","","","","","","","","","","key","f","16.676361111112378","640","396","./1_3_Stimuli/S_ambi40.png","他人","Image","朋友","Mismatch","f","true","Formal"
"","","","","","psychophysics","291","1256716","0.0-9.0-0.0-0.80","null","","null","","","","","","","","","","","","","key","null","16.673999999999793","640","396","./1_3_Stimuli/S_ambi40.png","朋友","Word","朋友","Match","j","false","Formal"
"","","","","","psychophysics","292","1259146","0.0-9.0-0.0-0.81","1277","","f","","","","","","","","","","","","","key","f","16.67399999999987","640","396","./1_3_Stimuli/C_ambi40.png","他人","Image","他人","Match","j","false","Formal"
"","","","","","psychophysics","293","1261429","0.0-9.0-0.0-0.82","1131","","j","","","","","","","","","","","","","key","j","16.67400000000078","640","396","./1_3_Stimuli/C_ambi40.png","他人","Word","他人","Match","j","true","Formal"
"","","","","","psychophysics","294","1263429","0.0-9.0-0.0-0.83","847","","f","","","","","","","","","","","","","key","f","16.674000000000046","640","396","./1_3_Stimuli/C_ambi40.png","朋友","Word","他人","Mismatch","f","true","Formal"
"","","","","","psychophysics","295","1265376","0.0-9.0-0.0-0.84","795","","f","","","","","","","","","","","","","key","f","16.677181034483386","640","396","./1_3_Stimuli/C_ambi40.png","朋友","Image","他人","Mismatch","f","true","Formal"
"","","","","","psychophysics","296","1267296","0.0-9.0-0.0-0.85","767","","f","","","","","","","","","","","","","key","f","16.67400000000111","640","396","./1_3_Stimuli/S_ambi40.png","自我","Image","朋友","Mismatch","f","true","Formal"
"","","","","","psychophysics","297","1269004","0.0-9.0-0.0-0.86","555","","f","","","","","","","","","","","","","key","f","16.67400000000022","640","396","./1_3_Stimuli/S_ambi40.png","自我","Word","朋友","Mismatch","f","true","Formal"
"","","","","","psychophysics","298","1270801","0.0-9.0-0.0-0.87","643","","j","","","","","","","","","","","","","key","j","16.674000000000156","640","396","./1_3_Stimuli/T_ambi40.png","自我","Word","自我","Match","j","true","Formal"
"","","","","","psychophysics","299","1272622","0.0-9.0-0.0-0.88","670","","f","","","","","","","","","","","","","key","f","16.67399999999907","640","396","./1_3_Stimuli/T_ambi40.png","朋友","Word","自我","Mismatch","f","true","Formal"
"","","","","","psychophysics","300","1274724","0.0-9.0-0.0-0.89","949","","f","","","","","","","","","","","","","key","f","16.676743999999015","640","396","./1_3_Stimuli/T_ambi40.png","他人","Image","自我","Mismatch","f","true","Formal"
"","","","","","psychophysics","301","1276684","0.0-9.0-0.0-0.90","807","","j","","","","","","","","","","","","","key","j","16.674000000000063","640","396","./1_3_Stimuli/T_ambi40.png","自我","Image","自我","Match","j","true","Formal"
"","","","","","psychophysics","302","1278755","0.0-9.0-0.0-0.91","919","","f","","","","","","","","","","","","","key","f","16.674000000000014","640","396","./1_3_Stimuli/S_ambi40.png","他人","Word","朋友","Mismatch","f","true","Formal"
"","","","","","psychophysics","303","1280705","0.0-9.0-0.0-0.92","798","","j","","","","","","","","","","","","","key","j","16.67399999999907","640","396","./1_3_Stimuli/S_ambi40.png","朋友","Word","朋友","Match","j","true","Formal"
"","","","","","psychophysics","304","1282492","0.0-9.0-0.0-0.93","636","","f","","","","","","","","","","","","","key","f","16.67399999999907","640","396","./1_3_Stimuli/C_ambi40.png","自我","Image","他人","Mismatch","f","true","Formal"
"","","","","","psychophysics","305","1284387","0.0-9.0-0.0-0.94","743","","j","","","","","","","","","","","","","key","j","16.67685840707849","640","396","./1_3_Stimuli/T_ambi40.png","自我","Image","自我","Match","j","true","Formal"
"","","","","","psychophysics","306","1286369","0.0-9.0-0.0-0.95","829","","f","","","","","","","","","","","","","key","f","16.674000000000063","640","396","./1_3_Stimuli/C_ambi40.png","自我","Word","他人","Mismatch","f","true","Formal"
"","","","","","psychophysics","307","1288243","0.0-9.0-0.0-0.96","721","","f","","","","","","","","","","","","","key","f","16.674000000000117","640","396","./1_3_Stimuli/S_ambi40.png","他人","Image","朋友","Mismatch","f","true","Formal"
"","","","","","psychophysics","308","1290333","0.0-9.0-0.0-0.97","939","","f","","","","","","","","","","","","","key","f","16.674000000000948","640","396","./1_3_Stimuli/T_ambi40.png","朋友","Image","自我","Mismatch","f","true","Formal"
"","","","","","psychophysics","309","1291994","0.0-9.0-0.0-0.98","507","","j","","","","","","","","","","","","","key","j","16.67399999999907","640","396","./1_3_Stimuli/T_ambi40.png","自我","Word","自我","Match","j","true","Formal"
"","","","","","psychophysics","310","1294263","0.0-9.0-0.0-0.99","1116","","f","","","","","","","","","","","","","key","f","16.67652592592597","640","396","./1_3_Stimuli/S_ambi40.png","朋友","Word","朋友","Match","j","false","Formal"
"","","","","","psychophysics","311","1296419","0.0-9.0-0.0-0.100","1003","","f","","","","","","","","","","","","","key","f","16.674000000000888","640","396","./1_3_Stimuli/C_ambi40.png","朋友","Image","他人","Mismatch","f","true","Formal"
"","","","","","psychophysics","312","1298397","0.0-9.0-0.0-0.101","827","","f","","","","","","","","","","","","","key","f","16.67400000000104","640","396","./1_3_Stimuli/T_ambi40.png","他人","Image","自我","Mismatch","f","true","Formal"
"","","","","","psychophysics","313","1300847","0.0-9.0-0.0-0.102","1299","","f","","","","","","","","","","","","","key","f","16.674000000000664","640","396","./1_3_Stimuli/S_ambi40.png","朋友","Image","朋友","Match","j","false","Formal"
"","","","","","psychophysics","314","1302788","0.0-9.0-0.0-0.103","789","","f","","","","","","","","","","","","","key","f","16.67400000000008","640","396","./1_3_Stimuli/T_ambi40.png","朋友","Word","自我","Mismatch","f","true","Formal"
"","","","","","psychophysics","315","1304606","0.0-9.0-0.0-0.104","663","","j","","","","","","","","","","","","","key","j","16.677907407406664","640","396","./1_3_Stimuli/C_ambi40.png","他人","Word","他人","Match","j","true","Formal"
"","","","","","psychophysics","316","1306231","0.0-9.0-0.0-0.105","473","","j","","","","","","","","","","","","","key","j","16.67400000000027","640","396","./1_3_Stimuli/T_ambi40.png","自我","Word","自我","Match","j","true","Formal"
"","","","","","psychophysics","317","1308940","0.0-9.0-0.0-0.106","null","","null","","","","","","","","","","","","","key","null","16.673999999999793","640","396","./1_3_Stimuli/C_ambi40.png","他人","Image","他人","Match","j","false","Formal"
"","","","","","psychophysics","318","1310558","0.0-9.0-0.0-0.107","464","","j","","","","","","","","","","","","","key","j","16.67399999999907","640","396","./1_3_Stimuli/T_ambi40.png","自我","Image","自我","Match","j","true","Formal"
"","","","","","psychophysics","319","1312587","0.0-9.0-0.0-0.108","875","","j","","","","","","","","","","","","","key","j","16.67399999999907","640","396","./1_3_Stimuli/S_ambi40.png","朋友","Image","朋友","Match","j","true","Formal"
"","","","","","psychophysics","320","1314523","0.0-9.0-0.0-0.109","782","","f","","","","","","","","","","","","","key","f","16.67654782608759","640","396","./1_3_Stimuli/S_ambi40.png","自我","Word","朋友","Mismatch","f","true","Formal"
"","","","","","psychophysics","321","1316728","0.0-9.0-0.0-0.110","1055","","j","","","","","","","","","","","","","key","j","16.673999999999957","640","396","./1_3_Stimuli/S_ambi40.png","朋友","Word","朋友","Match","j","true","Formal"
"","","","","","psychophysics","322","1318475","0.0-9.0-0.0-0.111","594","","f","","","","","","","","","","","","","key","f","16.67399999999907","640","396","./1_3_Stimuli/S_ambi40.png","自我","Image","朋友","Mismatch","f","true","Formal"
"","","","","","psychophysics","323","1320144","0.0-9.0-0.0-0.112","515","","j","","","","","","","","","","","","","key","j","16.673999999997893","640","396","./1_3_Stimuli/C_ambi40.png","他人","Image","他人","Match","j","true","Formal"
"","","","","","psychophysics","324","1322026","0.0-9.0-0.0-0.113","730","","f","","","","","","","","","","","","","key","f","16.67399999999907","640","396","./1_3_Stimuli/C_ambi40.png","自我","Image","他人","Mismatch","f","true","Formal"
"","","","","","psychophysics","325","1324400","0.0-9.0-0.0-0.114","1220","","f","","","","","","","","","","","","","key","f","16.67625531914862","640","396","./1_3_Stimuli/T_ambi40.png","他人","Word","自我","Mismatch","f","true","Formal"
"","","","","","psychophysics","326","1326394","0.0-9.0-0.0-0.115","843","","f","","","","","","","","","","","","","key","f","16.674000000000046","640","396","./1_3_Stimuli/S_ambi40.png","他人","Word","朋友","Mismatch","f","true","Formal"
"","","","","","psychophysics","327","1328196","0.0-9.0-0.0-0.116","651","","j","","","","","","","","","","","","","key","j","16.674000000000156","640","396","./1_3_Stimuli/T_ambi40.png","自我","Image","自我","Match","j","true","Formal"
"","","","","","psychophysics","328","1330698","0.0-9.0-0.0-0.117","1348","","f","","","","","","","","","","","","","key","f","16.674000000001413","640","396","./1_3_Stimuli/C_ambi40.png","朋友","Word","他人","Mismatch","f","true","Formal"
"","","","","","psychophysics","329","1332483","0.0-9.0-0.0-0.118","633","","f","","","","","","","","","","","","","key","f","16.674000000001264","640","396","./1_3_Stimuli/C_ambi40.png","自我","Word","他人","Mismatch","f","true","Formal"
"","","","","","psychophysics","330","1334750","0.0-9.0-0.0-0.119","1114","","f","","","","","","","","","","","","","key","f","16.67655555555528","640","396","./1_3_Stimuli/C_ambi40.png","他人","Word","他人","Match","j","false","Formal"
"","","","","","html-keyboard-response","331","1339572","0.0-9.0-1.0","4820","<style>.context{color:white; font-size: 35px; line-height:40px}</style>                        <div><p class='context'>您正确回答了86% 的试次。</p><p class='context'>您的平均反应时为802毫秒。</p><p> <div style = 'color: green'><按任意键进入休息></div></p>"," ","","","","","","","","","","","","","","","","","","","","","","","","",""
"","","","","","html-button-response","332","1422758","0.0-9.0-2.0","83179","
                  <p>您当前还剩余5组实验</p>
                  <p>现在是休息时间，当您结束休息后，您可以点击 结束休息 按钮 继续</p>
                  <p>建议休息时间还剩余<span id=""iii"">60</span>秒</p>","0","","","","","","","","","","","","","","","","","","","","","","","","",""
"","","","","","psychophysics","333","1425470","0.0-9.0-0.1-0.120","null","","null","","","","","","","","","","","","","key","null","16.673999999999793","640","396","./1_3_Stimuli/T_ambi40.png","自我","Image","自我","Match","j","false","Formal"
"","","","","","psychophysics","334","1427897","0.0-9.0-0.1-0.121","1274","","j","","","","","","","","","","","","","key","j","16.67399999999987","640","396","./1_3_Stimuli/C_ambi40.png","他人","Image","他人","Match","j","true","Formal"
"","","","","","psychophysics","335","1429704","0.0-9.0-0.1-0.122","653","","f","","","","","","","","","","","","","key","f","16.71093457943986","640","396","./1_3_Stimuli/T_ambi40.png","朋友","Image","自我","Mismatch","f","true","Formal"
"","","","","","psychophysics","336","1431339","0.0-9.0-0.1-0.123","481","","j","","","","","","","","","","","","","key","j","16.67400000000027","640","396","./1_3_Stimuli/T_ambi40.png","自我","Image","自我","Match","j","true","Formal"
"","","","","","psychophysics","337","1432975","0.0-9.0-0.1-0.124","485","","j","","","","","","","","","","","","","key","j","16.67400000000027","640","396","./1_3_Stimuli/T_ambi40.png","自我","Word","自我","Match","j","true","Formal"
"","","","","","psychophysics","338","1434945","0.0-9.0-0.1-0.125","816","","j","","","","","","","","","","","","","key","j","16.674000000000063","640","396","./1_3_Stimuli/C_ambi40.png","他人","Word","他人","Match","j","true","Formal"
"","","","","","psychophysics","339","1436659","0.0-9.0-0.1-0.126","560","","f","","","","","","","","","","","","","key","f","16.67400000000022","640","396","./1_3_Stimuli/C_ambi40.png","自我","Image","他人","Mismatch","f","true","Formal"
"","","","","","psychophysics","340","1438978","0.0-9.0-0.1-0.127","1167","","j","","","","","","","","","","","","","key","j","16.67675362318835","640","396","./1_3_Stimuli/C_ambi40.png","他人","Image","他人","Match","j","true","Formal"
"","","","","","psychophysics","341","1440678","0.0-9.0-0.1-0.128","546","","f","","","","","","","","","","","","","key","f","16.67400000000022","640","396","./1_3_Stimuli/T_ambi40.png","他人","Image","自我","Mismatch","f","true","Formal"
"","","","","","psychophysics","342","1442398","0.0-9.0-0.1-0.129","568","","j","","","","","","","","","","","","","key","j","16.67399999999907","640","396","./1_3_Stimuli/S_ambi40.png","朋友","Image","朋友","Match","j","true","Formal"
"","","","","","psychophysics","343","1444349","0.0-9.0-0.1-0.130","797","","f","","","","","","","","","","","","","key","f","16.67400000000008","640","396","./1_3_Stimuli/T_ambi40.png","他人","Word","自我","Mismatch","f","true","Formal"
"","","","","","psychophysics","344","1446264","0.0-9.0-0.1-0.131","763","","f","","","","","","","","","","","","","key","f","16.67400000000111","640","396","./1_3_Stimuli/C_ambi40.png","朋友","Image","他人","Mismatch","f","true","Formal"
"","","","","","psychophysics","345","1448230","0.0-9.0-0.1-0.132","813","","j","","","","","","","","","","","","","key","j","16.674000000000063","640","396","./1_3_Stimuli/C_ambi40.png","他人","Word","他人","Match","j","true","Formal"
"","","","","","psychophysics","346","1450169","0.0-9.0-0.1-0.133","786","","f","","","","","","","","","","","","","key","f","16.676486956520492","640","396","./1_3_Stimuli/C_ambi40.png","朋友","Word","他人","Mismatch","f","true","Formal"
"","","","","","psychophysics","347","1452200","0.0-9.0-0.1-0.134","879","","j","","","","","","","","","","","","","key","j","16.67400000000003","640","396","./1_3_Stimuli/S_ambi40.png","他人","Image","朋友","Mismatch","f","false","Formal"
"","","","","","psychophysics","348","1454685","0.0-9.0-0.1-0.135","1333","","j","","","","","","","","","","","","","key","j","16.674000000000643","640","396","./1_3_Stimuli/S_ambi40.png","他人","Word","朋友","Mismatch","f","false","Formal"
"","","","","","psychophysics","349","1456500","0.0-9.0-0.1-0.136","664","","f","","","","","","","","","","","","","key","f","16.67399999999907","640","396","./1_3_Stimuli/S_ambi40.png","朋友","Image","朋友","Match","j","false","Formal"
"","","","","","psychophysics","350","1458837","0.0-9.0-0.1-0.137","1183","","j","","","","","","","","","","","","","key","j","16.673999999999907","640","396","./1_3_Stimuli/S_ambi40.png","朋友","Word","朋友","Match","j","true","Formal"
"","","","","","psychophysics","351","1460661","0.0-9.0-0.1-0.138","673","","f","","","","","","","","","","","","","key","f","16.676879629630733","640","396","./1_3_Stimuli/T_ambi40.png","朋友","Word","自我","Mismatch","f","true","Formal"
"","","","","","psychophysics","352","1462453","0.0-9.0-0.1-0.139","641","","f","","","","","","","","","","","","","key","f","16.674000000000156","640","396","./1_3_Stimuli/S_ambi40.png","自我","Word","朋友","Mismatch","f","true","Formal"
"","","","","","psychophysics","353","1465160","0.0-9.0-0.1-0.140","null","","null","","","","","","","","","","","","","key","null","16.67400000000124","640","396","./1_3_Stimuli/C_ambi40.png","自我","Word","他人","Mismatch","f","false","Formal"
"","","","","","psychophysics","354","1466925","0.0-9.0-0.1-0.141","611","","f","","","","","","","","","","","","","key","f","16.674000000000177","640","396","./1_3_Stimuli/S_ambi40.png","自我","Image","朋友","Mismatch","f","true","Formal"
"","","","","","psychophysics","355","1468609","0.0-9.0-0.1-0.142","532","","j","","","","","","","","","","","","","key","j","16.67399999999907","640","396","./1_3_Stimuli/T_ambi40.png","自我","Word","自我","Match","j","true","Formal"
"","","","","","psychophysics","356","1470645","0.0-9.0-0.1-0.143","883","","j","","","","","","","","","","","","","key","j","16.676859504133386","640","396","./1_3_Stimuli/S_ambi40.png","朋友","Word","朋友","Match","j","true","Formal"
"","","","","","psychophysics","357","1472420","0.0-9.0-0.1-0.144","620","","j","","","","","","","","","","","","","key","j","16.674000000000177","640","396","./1_3_Stimuli/T_ambi40.png","自我","Word","自我","Match","j","true","Formal"
"","","","","","psychophysics","358","1474181","0.0-9.0-0.1-0.145","607","","f","","","","","","","","","","","","","key","f","16.674000000001307","640","396","./1_3_Stimuli/S_ambi40.png","他人","Image","朋友","Mismatch","f","true","Formal"
"","","","","","psychophysics","359","1476044","0.0-9.0-0.1-0.146","711","","j","","","","","","","","","","","","","key","j","16.67399999999907","640","396","./1_3_Stimuli/T_ambi40.png","自我","Word","自我","Match","j","true","Formal"
"","","","","","psychophysics","360","1478002","0.0-9.0-0.1-0.147","807","","j","","","","","","","","","","","","","key","j","16.67399999999907","640","396","./1_3_Stimuli/S_ambi40.png","朋友","Word","朋友","Match","j","true","Formal"
"","","","","","psychophysics","361","1479748","0.0-9.0-0.1-0.148","593","","f","","","","","","","","","","","","","key","f","16.67728846153701","640","396","./1_3_Stimuli/C_ambi40.png","自我","Word","他人","Mismatch","f","true","Formal"
"","","","","","psychophysics","362","1481721","0.0-9.0-0.1-0.149","821","","j","","","","","","","","","","","","","key","j","16.674000000000063","640","396","./1_3_Stimuli/C_ambi40.png","他人","Image","他人","Match","j","true","Formal"
"","","","","","psychophysics","363","1483367","0.0-9.0-0.1-0.150","494","","j","","","","","","","","","","","","","key","j","16.67400000000027","640","396","./1_3_Stimuli/T_ambi40.png","自我","Image","自我","Match","j","true","Formal"
"","","","","","psychophysics","364","1485138","0.0-9.0-0.1-0.151","619","","j","","","","","","","","","","","","","key","j","16.674000000000177","640","396","./1_3_Stimuli/S_ambi40.png","朋友","Image","朋友","Match","j","true","Formal"
"","","","","","psychophysics","365","1487086","0.0-9.0-0.1-0.152","794","","j","","","","","","","","","","","","","key","j","16.67400000000008","640","396","./1_3_Stimuli/C_ambi40.png","他人","Word","他人","Match","j","true","Formal"
"","","","","","psychophysics","366","1488760","0.0-9.0-0.1-0.153","523","","f","","","","","","","","","","","","","key","f","16.673999999997893","640","396","./1_3_Stimuli/S_ambi40.png","朋友","Image","朋友","Match","j","false","Formal"
"","","","","","psychophysics","367","1490726","0.0-9.0-0.1-0.154","812","","f","","","","","","","","","","","","","key","f","16.677181034483386","640","396","./1_3_Stimuli/T_ambi40.png","朋友","Word","自我","Mismatch","f","true","Formal"
"","","","","","psychophysics","368","1492605","0.0-9.0-0.1-0.155","727","","j","","","","","","","","","","","","","key","j","16.67399999999907","640","396","./1_3_Stimuli/C_ambi40.png","他人","Word","他人","Match","j","true","Formal"
"","","","","","psychophysics","369","1494423","0.0-9.0-0.1-0.156","667","","f","","","","","","","","","","","","","key","f","16.67399999999907","640","396","./1_3_Stimuli/S_ambi40.png","自我","Image","朋友","Mismatch","f","true","Formal"
"","","","","","psychophysics","370","1496443","0.0-9.0-0.1-0.157","867","","f","","","","","","","","","","","","","key","f","16.67399999999907","640","396","./1_3_Stimuli/C_ambi40.png","自我","Image","他人","Mismatch","f","true","Formal"
"","","","","","psychophysics","371","1498405","0.0-9.0-0.1-0.158","810","","f","","","","","","","","","","","","","key","f","16.673999999998074","640","396","./1_3_Stimuli/S_ambi40.png","自我","Word","朋友","Mismatch","f","true","Formal"
"","","","","","psychophysics","372","1500362","0.0-9.0-0.1-0.159","806","","f","","","","","","","","","","","","","key","f","16.677534482758976","640","396","./1_3_Stimuli/T_ambi40.png","朋友","Image","自我","Mismatch","f","true","Formal"
"","","","","","psychophysics","373","1502323","0.0-9.0-0.1-0.160","808","","f","","","","","","","","","","","","","key","f","16.67399999999907","640","396","./1_3_Stimuli/T_ambi40.png","他人","Word","自我","Mismatch","f","true","Formal"
"","","","","","psychophysics","374","1504110","0.0-9.0-0.1-0.161","636","","j","","","","","","","","","","","","","key","j","16.67399999999907","640","396","./1_3_Stimuli/S_ambi40.png","朋友","Word","朋友","Match","j","true","Formal"
"","","","","","psychophysics","375","1505813","0.0-9.0-0.1-0.162","551","","j","","","","","","","","","","","","","key","j","16.67400000000022","640","396","./1_3_Stimuli/T_ambi40.png","自我","Image","自我","Match","j","true","Formal"
"","","","","","psychophysics","376","1507468","0.0-9.0-0.1-0.163","501","","j","","","","","","","","","","","","","key","j","16.674000000001445","640","396","./1_3_Stimuli/C_ambi40.png","他人","Image","他人","Match","j","true","Formal"
"","","","","","psychophysics","377","1509228","0.0-9.0-0.1-0.164","608","","f","","","","","","","","","","","","","key","f","16.676692307691646","640","396","./1_3_Stimuli/C_ambi40.png","朋友","Word","他人","Mismatch","f","true","Formal"
"","","","","","psychophysics","378","1511519","0.0-9.0-0.1-0.165","1139","","f","","","","","","","","","","","","","key","f","16.67400000000078","640","396","./1_3_Stimuli/C_ambi40.png","朋友","Image","他人","Mismatch","f","true","Formal"
"","","","","","psychophysics","379","1513336","0.0-9.0-0.1-0.166","663","","f","","","","","","","","","","","","","key","f","16.674000000000156","640","396","./1_3_Stimuli/T_ambi40.png","他人","Image","自我","Mismatch","f","true","Formal"
"","","","","","psychophysics","380","1515322","0.0-9.0-0.1-0.167","832","","f","","","","","","","","","","","","","key","f","16.67400000000104","640","396","./1_3_Stimuli/S_ambi40.png","他人","Word","朋友","Mismatch","f","true","Formal"
"","","","","","psychophysics","381","1517137","0.0-9.0-0.1-0.168","662","","f","","","","","","","","","","","","","key","f","16.674000000000156","640","396","./1_3_Stimuli/S_ambi40.png","自我","Word","朋友","Mismatch","f","true","Formal"
"","","","","","psychophysics","382","1518982","0.0-9.0-0.1-0.169","694","","f","","","","","","","","","","","","","key","f","16.674000000001186","640","396","./1_3_Stimuli/T_ambi40.png","他人","Image","自我","Mismatch","f","true","Formal"
"","","","","","psychophysics","383","1520751","0.0-9.0-0.1-0.170","618","","f","","","","","","","","","","","","","key","f","16.677028571428465","640","396","./1_3_Stimuli/C_ambi40.png","自我","Image","他人","Mismatch","f","true","Formal"
"","","","","","psychophysics","384","1522755","0.0-9.0-0.1-0.171","850","","f","","","","","","","","","","","","","key","f","16.674000000000046","640","396","./1_3_Stimuli/S_ambi40.png","他人","Word","朋友","Mismatch","f","true","Formal"
"","","","","","psychophysics","385","1524435","0.0-9.0-0.1-0.172","528","","j","","","","","","","","","","","","","key","j","16.674000000001396","640","396","./1_3_Stimuli/S_ambi40.png","朋友","Word","朋友","Match","j","true","Formal"
"","","","","","psychophysics","386","1526077","0.0-9.0-0.1-0.173","490","","j","","","","","","","","","","","","","key","j","16.67400000000027","640","396","./1_3_Stimuli/T_ambi40.png","自我","Word","自我","Match","j","true","Formal"
"","","","","","psychophysics","387","1528037","0.0-9.0-0.1-0.174","807","","f","","","","","","","","","","","","","key","f","16.67400000000008","640","396","./1_3_Stimuli/C_ambi40.png","朋友","Image","他人","Mismatch","f","true","Formal"
"","","","","","psychophysics","388","1529908","0.0-9.0-0.1-0.175","718","","f","","","","","","","","","","","","","key","f","16.677126126126847","640","396","./1_3_Stimuli/C_ambi40.png","他人","Word","他人","Match","j","false","Formal"
"","","","","","psychophysics","389","1531990","0.0-9.0-0.1-0.176","929","","f","","","","","","","","","","","","","key","f","16.674000000000948","640","396","./1_3_Stimuli/S_ambi40.png","他人","Image","朋友","Mismatch","f","true","Formal"
"","","","","","psychophysics","390","1534057","0.0-9.0-0.1-0.177","915","","j","","","","","","","","","","","","","key","j","16.674000000000014","640","396","./1_3_Stimuli/S_ambi40.png","朋友","Image","朋友","Match","j","true","Formal"
"","","","","","psychophysics","391","1535826","0.0-9.0-0.1-0.178","617","","f","","","","","","","","","","","","","key","f","16.674000000000177","640","396","./1_3_Stimuli/T_ambi40.png","朋友","Word","自我","Mismatch","f","true","Formal"
"","","","","","psychophysics","392","1537512","0.0-9.0-0.1-0.179","535","","j","","","","","","","","","","","","","key","j","16.67399999999907","640","396","./1_3_Stimuli/T_ambi40.png","自我","Image","自我","Match","j","true","Formal"
"","","","","","psychophysics","393","1539399","0.0-9.0-0.1-0.180","736","","j","","","","","","","","","","","","","key","j","16.67771428571515","640","396","./1_3_Stimuli/C_ambi40.png","他人","Image","他人","Match","j","true","Formal"
"","","","","","psychophysics","394","1541359","0.0-9.0-0.1-0.181","807","","j","","","","","","","","","","","","","key","j","16.674000000000063","640","396","./1_3_Stimuli/S_ambi40.png","朋友","Image","朋友","Match","j","true","Formal"
"","","","","","psychophysics","395","1543200","0.0-9.0-0.1-0.182","688","","f","","","","","","","","","","","","","key","f","16.673999999998","640","396","./1_3_Stimuli/C_ambi40.png","他人","Word","他人","Match","j","false","Formal"
"","","","","","psychophysics","396","1545565","0.0-9.0-0.1-0.183","1211","","f","","","","","","","","","","","","","key","f","16.673999999999893","640","396","./1_3_Stimuli/S_ambi40.png","朋友","Word","朋友","Match","j","false","Formal"
"","","","","","psychophysics","397","1547233","0.0-9.0-0.1-0.184","516","","j","","","","","","","","","","","","","key","j","16.673999999997893","640","396","./1_3_Stimuli/T_ambi40.png","自我","Word","自我","Match","j","true","Formal"
"","","","","","psychophysics","398","1549582","0.0-9.0-0.1-0.185","1197","","j","","","","","","","","","","","","","key","j","16.676171428570523","640","396","./1_3_Stimuli/C_ambi40.png","他人","Image","他人","Match","j","true","Formal"
"","","","","","psychophysics","399","1551224","0.0-9.0-0.1-0.186","491","","f","","","","","","","","","","","","","key","f","16.67400000000027","640","396","./1_3_Stimuli/C_ambi40.png","自我","Word","他人","Mismatch","f","true","Formal"
"","","","","","psychophysics","400","1552869","0.0-9.0-0.1-0.187","492","","j","","","","","","","","","","","","","key","j","16.674000000001445","640","396","./1_3_Stimuli/T_ambi40.png","自我","Image","自我","Match","j","true","Formal"
"","","","","","psychophysics","401","1554870","0.0-9.0-0.1-0.188","849","","f","","","","","","","","","","","","","key","f","16.674000000000046","640","396","./1_3_Stimuli/C_ambi40.png","朋友","Word","他人","Mismatch","f","true","Formal"
"","","","","","psychophysics","402","1556855","0.0-9.0-0.1-0.189","832","","f","","","","","","","","","","","","","key","f","16.67399999999907","640","396","./1_3_Stimuli/T_ambi40.png","朋友","Image","自我","Mismatch","f","true","Formal"
"","","","","","psychophysics","403","1558741","0.0-9.0-0.1-0.190","735","","f","","","","","","","","","","","","","key","f","16.67399999999907","640","396","./1_3_Stimuli/T_ambi40.png","他人","Word","自我","Mismatch","f","true","Formal"
"","","","","","psychophysics","404","1560640","0.0-9.0-0.1-0.191","747","","f","","","","","","","","","","","","","key","f","16.676752212389363","640","396","./1_3_Stimuli/S_ambi40.png","自我","Image","朋友","Mismatch","f","true","Formal"
"","","","","","psychophysics","405","1562404","0.0-9.0-0.1-0.192","613","","f","","","","","","","","","","","","","key","f","16.674000000000177","640","396","./1_3_Stimuli/C_ambi40.png","自我","Image","他人","Mismatch","f","true","Formal"
"","","","","","psychophysics","406","1564288","0.0-9.0-0.1-0.193","732","","f","","","","","","","","","","","","","key","f","16.67399999999907","640","396","./1_3_Stimuli/S_ambi40.png","自我","Word","朋友","Mismatch","f","true","Formal"
"","","","","","psychophysics","407","1566124","0.0-9.0-0.1-0.194","683","","f","","","","","","","","","","","","","key","f","16.673999999998","640","396","./1_3_Stimuli/T_ambi40.png","朋友","Image","自我","Mismatch","f","true","Formal"
"","","","","","psychophysics","408","1568231","0.0-9.0-0.1-0.195","954","","j","","","","","","","","","","","","","key","j","16.674","640","396","./1_3_Stimuli/C_ambi40.png","他人","Image","他人","Match","j","true","Formal"
"","","","","","psychophysics","409","1570380","0.0-9.0-0.1-0.196","997","","j","","","","","","","","","","","","","key","j","16.67670866141763","640","396","./1_3_Stimuli/S_ambi40.png","朋友","Word","朋友","Match","j","true","Formal"
"","","","","","psychophysics","410","1572445","0.0-9.0-0.1-0.197","913","","f","","","","","","","","","","","","","key","f","16.674000000000014","640","396","./1_3_Stimuli/S_ambi40.png","他人","Image","朋友","Mismatch","f","true","Formal"
"","","","","","psychophysics","411","1574736","0.0-9.0-0.1-0.198","1138","","f","","","","","","","","","","","","","key","f","16.67399999999907","640","396","./1_3_Stimuli/S_ambi40.png","他人","Word","朋友","Mismatch","f","true","Formal"
"","","","","","psychophysics","412","1576529","0.0-9.0-0.1-0.199","639","","j","","","","","","","","","","","","","key","j","16.674000000000156","640","396","./1_3_Stimuli/T_ambi40.png","自我","Word","自我","Match","j","true","Formal"
"","","","","","psychophysics","413","1578322","0.0-9.0-0.1-0.200","639","","f","","","","","","","","","","","","","key","f","16.674000000001264","640","396","./1_3_Stimuli/C_ambi40.png","自我","Word","他人","Mismatch","f","true","Formal"
"","","","","","psychophysics","414","1580954","0.0-9.0-0.1-0.201","1480","","j","","","","","","","","","","","","","key","j","16.67619871794849","640","396","./1_3_Stimuli/C_ambi40.png","他人","Image","他人","Match","j","true","Formal"
"","","","","","psychophysics","415","1582899","0.0-9.0-0.1-0.202","791","","j","","","","","","","","","","","","","key","j","16.674000000001076","640","396","./1_3_Stimuli/C_ambi40.png","他人","Word","他人","Match","j","true","Formal"
"","","","","","psychophysics","416","1584607","0.0-9.0-0.1-0.203","554","","j","","","","","","","","","","","","","key","j","16.67400000000022","640","396","./1_3_Stimuli/C_ambi40.png","他人","Word","他人","Match","j","true","Formal"
"","","","","","psychophysics","417","1586799","0.0-9.0-0.1-0.204","1040","","j","","","","","","","","","","","","","key","j","16.67400000000086","640","396","./1_3_Stimuli/S_ambi40.png","朋友","Image","朋友","Match","j","true","Formal"
"","","","","","psychophysics","418","1588673","0.0-9.0-0.1-0.205","721","","f","","","","","","","","","","","","","key","f","16.674000000000117","640","396","./1_3_Stimuli/T_ambi40.png","他人","Word","自我","Mismatch","f","true","Formal"
"","","","","","psychophysics","419","1590436","0.0-9.0-0.1-0.206","611","","f","","","","","","","","","","","","","key","f","16.678096153847246","640","396","./1_3_Stimuli/T_ambi40.png","他人","Image","自我","Mismatch","f","true","Formal"
