"success","timeout","failed_images","failed_audio","failed_video","trial_type","trial_index","time_elapsed","internal_node_id","rt","stimulus","response","value","item_width_mm","item_height_mm","item_width_px","px2mm","view_dist_mm","item_width_deg","px2deg","scale_factor","win_width_deg","win_height_deg","view_history","response_type","key_press","avg_frame_time","center_x","center_y","image","word","target","valence","matchness","correct_response","correct","exp_condition"
"true","false","[]","[]","[]","preload","0","3","0.0-0.0","","","","","","","","","","","","","","","","","","","","","","","","","","","",""
"","","","","","html-keyboard-response","1","9962","0.0-1.0","9958","
     <p>您好，欢迎参加本次实验。</p>
     <p>为充分保障您的权利，请确保您已经知晓并同意《参与实验同意书》以及《数据公开知情同意书》。</p>
     <p>如果您未见过上述内容，请咨询实验员。</p>
     <p>如果您选择继续实验，则表示您已经清楚两份知情同意书的内容并同意。</p>
     <p> <div style = ""color: green""><按任意键至下页></div> </p>
     "," ","","","","","","","","","","","","","","","","","","","","","","","","",""
"","","","","","html-keyboard-response","2","11247","0.0-2.0-0.0","1285","
      <p>本实验首先需要您填写一些基本个人信息。</p>
      <p> <div style = ""color: green""><按任意键至下页></div></p>
      "," ","","","","","","","","","","","","","","","","","","","","","","","","",""
"","","","","","call-function","3","11248","0.0-2.0-1.0","","","","","","","","","","","","","","","","","","","","","","","","","","","",""
"","","","","","survey-html-form","4","21171","0.0-2.0-2.0","9920","","{""Q0"":""1007""}","","","","","","","","","","","","","","","","","","","","","","","","",""
"","","","","","html-button-response","5","22279","0.0-2.0-3.0","1108","<p style = 'color : white'>您的性别</p>","1","","","","","","","","","","","","","","","","","","","","","","","","",""
"","","","","","survey-html-form","6","31601","0.0-2.0-4.0","9319","","{""Q0"":""2002""}","","","","","","","","","","","","","","","","","","","","","","","","",""
"","","","","","survey-html-form","7","40565","0.0-2.0-5.0","8964","","{""Q0"":""5""}","","","","","","","","","","","","","","","","","","","","","","","","",""
"","","","","","virtual-chinrest","8","189958","0.0-3.0","149393","","","","85.6","53.98","320.4403051968179","3.7397268559440393","764.48","6.4088061039363575","50","1.3263000724548692","30.72","14.06","","","","","","","","","","","","","",""
"true","","","","","fullscreen","9","203108","0.0-4.0","","","","","","","","","","","","","","","","","","","","","","","","","","","",""
"","","","","","instructions","10","464429","0.0-5.0","261313","","","","","","","","","","","","","","[{""page_index"":0,""viewing_time"":10457},{""page_index"":1,""viewing_time"":144683},{""page_index"":2,""viewing_time"":95466},{""page_index"":3,""viewing_time"":10706}]","","","","","","","","","","","","",""
"","","","","","html-keyboard-response","11","468091","0.0-6.0","null","<count-down title=""""></count-down>","null","","","","","","","","","","","","","","","","","","","","","","","","",""
"","","","","","psychophysics","12","470804","0.0-7.0-0.0-0.0","null","","null","","","","","","","","","","","","","key","null","26.454444444444057","1200","670.625","3_Stimuli/T_ambi40.png","他人","Image","自我","Mismatch","f","false","Practice"
"","","","","","html-keyboard-response","13","471140","0.0-7.0-0.0-1.0","null","<span class='add_' style='color:yellow; font-size: 70px;'> 太慢! </span>","null","","","","","","","","","","","","","","","","","","","","","","","","","feedback"
"","","","","","psychophysics","14","473523","0.0-7.0-0.0-0.1","1228","","f","","","","","","","","","","","","","key","f","24.271025641025073","1200","670.625","3_Stimuli/C_ambi40.png","他人","Image","他人","Match","j","false","Practice"
"","","","","","html-keyboard-response","15","473837","0.0-7.0-0.0-1.1","null","<span style='color:red; font-size: 70px;'>错误! </span>","null","","","","","","","","","","","","","","","","","","","","","","","","","feedback"
"","","","","","psychophysics","16","476183","0.0-7.0-0.0-0.2","1181","","f","","","","","","","","","","","","","key","f","23.42505050505067","1200","670.625","3_Stimuli/C_ambi40.png","自我","Image","他人","Mismatch","f","true","Practice"
"","","","","","html-keyboard-response","17","476498","0.0-7.0-0.0-1.2","null","<span style='color:GreenYellow; font-size: 70px;'>正确! </span>","null","","","","","","","","","","","","","","","","","","","","","","","","","feedback"
"","","","","","psychophysics","18","479014","0.0-7.0-0.0-0.3","1352","","j","","","","","","","","","","","","","key","j","22.607333333333695","1200","670.625","3_Stimuli/S_ambi40.png","自我","Word","朋友","Mismatch","f","false","Practice"
"","","","","","html-keyboard-response","19","479319","0.0-7.0-0.0-1.3","null","<span style='color:red; font-size: 70px;'>错误! </span>","null","","","","","","","","","","","","","","","","","","","","","","","","","feedback"
"","","","","","psychophysics","20","481686","0.0-7.0-0.0-0.4","1206","","j","","","","","","","","","","","","","key","j","24.860000000000273","1200","670.625","3_Stimuli/S_ambi40.png","自我","Image","朋友","Mismatch","f","false","Practice"
"","","","","","html-keyboard-response","21","481998","0.0-7.0-0.0-1.4","null","<span style='color:red; font-size: 70px;'>错误! </span>","null","","","","","","","","","","","","","","","","","","","","","","","","","feedback"
"","","","","","psychophysics","22","484773","0.0-7.0-0.0-0.5","null","","null","","","","","","","","","","","","","key","null","24.517857142857142","1200","670.625","3_Stimuli/T_ambi40.png","自我","Word","自我","Match","j","false","Practice"
"","","","","","html-keyboard-response","23","485087","0.0-7.0-0.0-1.5","null","<span class='add_' style='color:yellow; font-size: 70px;'> 太慢! </span>","null","","","","","","","","","","","","","","","","","","","","","","","","","feedback"
"","","","","","psychophysics","24","487126","0.0-7.0-0.0-0.6","872","","f","","","","","","","","","","","","","key","f","24.565925925925523","1200","670.625","3_Stimuli/T_ambi40.png","自我","Image","自我","Match","j","false","Practice"
"","","","","","html-keyboard-response","25","487438","0.0-7.0-0.0-1.6","null","<span style='color:red; font-size: 70px;'>错误! </span>","null","","","","","","","","","","","","","","","","","","","","","","","","","feedback"
"","","","","","psychophysics","26","489566","0.0-7.0-0.0-0.7","960","","f","","","","","","","","","","","","","key","f","25.488048780487322","1200","670.625","3_Stimuli/T_ambi40.png","自我","Word","自我","Match","j","false","Practice"
"","","","","","html-keyboard-response","27","489910","0.0-7.0-0.0-1.7","null","<span style='color:red; font-size: 70px;'>错误! </span>","null","","","","","","","","","","","","","","","","","","","","","","","","","feedback"
"","","","","","psychophysics","28","492625","0.0-7.0-0.0-0.8","null","","null","","","","","","","","","","","","","key","null","24.960925925926183","1200","670.625","3_Stimuli/S_ambi40.png","朋友","Word","朋友","Match","j","false","Practice"
"","","","","","html-keyboard-response","29","492952","0.0-7.0-0.0-1.8","null","<span class='add_' style='color:yellow; font-size: 70px;'> 太慢! </span>","null","","","","","","","","","","","","","","","","","","","","","","","","","feedback"
"","","","","","psychophysics","30","495675","0.0-7.0-0.0-0.9","null","","null","","","","","","","","","","","","","key","null","26.350588235294207","1200","670.625","3_Stimuli/C_ambi40.png","朋友","Image","他人","Mismatch","f","false","Practice"
"","","","","","html-keyboard-response","31","495997","0.0-7.0-0.0-1.9","null","<span class='add_' style='color:yellow; font-size: 70px;'> 太慢! </span>","null","","","","","","","","","","","","","","","","","","","","","","","","","feedback"
"","","","","","psychophysics","32","498716","0.0-7.0-0.0-0.10","null","","null","","","","","","","","","","","","","key","null","24.749724770641947","1200","670.625","3_Stimuli/S_ambi40.png","他人","Word","朋友","Mismatch","f","false","Practice"
"","","","","","html-keyboard-response","33","499022","0.0-7.0-0.0-1.10","null","<span class='add_' style='color:yellow; font-size: 70px;'> 太慢! </span>","null","","","","","","","","","","","","","","","","","","","","","","","","","feedback"
"","","","","","psychophysics","34","501743","0.0-7.0-0.0-0.11","null","","null","","","","","","","","","","","","","key","null","24.31027027027029","1200","670.625","3_Stimuli/C_ambi40.png","他人","Word","他人","Match","j","false","Practice"
"","","","","","html-keyboard-response","35","502058","0.0-7.0-0.0-1.11","null","<span class='add_' style='color:yellow; font-size: 70px;'> 太慢! </span>","null","","","","","","","","","","","","","","","","","","","","","","","","","feedback"
"","","","","","psychophysics","36","504469","0.0-7.0-0.0-0.12","1251","","j","","","","","","","","","","","","","key","j","23.997373737373643","1200","670.625","3_Stimuli/C_ambi40.png","他人","Word","他人","Match","j","true","Practice"
"","","","","","html-keyboard-response","37","504788","0.0-7.0-0.0-1.12","null","<span style='color:GreenYellow; font-size: 70px;'>正确! </span>","null","","","","","","","","","","","","","","","","","","","","","","","","","feedback"
"","","","","","psychophysics","38","506850","0.0-7.0-0.0-0.13","888","","f","","","","","","","","","","","","","key","f","22.20869565217404","1200","670.625","3_Stimuli/S_ambi40.png","朋友","Word","朋友","Match","j","false","Practice"
"","","","","","html-keyboard-response","39","507151","0.0-7.0-0.0-1.13","null","<span style='color:red; font-size: 70px;'>错误! </span>","null","","","","","","","","","","","","","","","","","","","","","","","","","feedback"
"","","","","","psychophysics","40","508879","0.0-7.0-0.0-0.14","568","","j","","","","","","","","","","","","","key","j","24.141428571428904","1200","670.625","3_Stimuli/T_ambi40.png","朋友","Image","自我","Mismatch","f","false","Practice"
"","","","","","html-keyboard-response","41","509188","0.0-7.0-0.0-1.14","null","<span style='color:red; font-size: 70px;'>错误! </span>","null","","","","","","","","","","","","","","","","","","","","","","","","","feedback"
"","","","","","psychophysics","42","511264","0.0-7.0-0.0-0.15","916","","j","","","","","","","","","","","","","key","j","24.458571428571652","1200","670.625","3_Stimuli/C_ambi40.png","他人","Image","他人","Match","j","true","Practice"
"","","","","","html-keyboard-response","43","511580","0.0-7.0-0.0-1.15","null","<span style='color:GreenYellow; font-size: 70px;'>正确! </span>","null","","","","","","","","","","","","","","","","","","","","","","","","","feedback"
"","","","","","psychophysics","44","513874","0.0-7.0-0.0-0.16","999","","j","","","","","","","","","","","","","key","j","23.314999999999902","1200","670.625","3_Stimuli/S_ambi40.png","朋友","Image","朋友","Match","j","true","Practice"
"","","","","","html-keyboard-response","45","514178","0.0-7.0-0.0-1.16","null","<span style='color:GreenYellow; font-size: 70px;'>正确! </span>","null","","","","","","","","","","","","","","","","","","","","","","","","","feedback"
"","","","","","psychophysics","46","515935","0.0-7.0-0.0-0.17","600","","j","","","","","","","","","","","","","key","j","24.781428571428737","1200","670.625","3_Stimuli/T_ambi40.png","朋友","Word","自我","Mismatch","f","false","Practice"
"","","","","","html-keyboard-response","47","516283","0.0-7.0-0.0-1.17","null","<span style='color:red; font-size: 70px;'>错误! </span>","null","","","","","","","","","","","","","","","","","","","","","","","","","feedback"
"","","","","","psychophysics","48","517966","0.0-7.0-0.0-0.18","524","","j","","","","","","","","","","","","","key","j","24.609850746269316","1200","670.625","3_Stimuli/C_ambi40.png","朋友","Word","他人","Mismatch","f","false","Practice"
"","","","","","html-keyboard-response","49","518266","0.0-7.0-0.0-1.18","null","<span style='color:red; font-size: 70px;'>错误! </span>","null","","","","","","","","","","","","","","","","","","","","","","","","","feedback"
"","","","","","psychophysics","50","520419","0.0-7.0-0.0-0.19","987","","j","","","","","","","","","","","","","key","j","24.873176470587907","1200","670.625","3_Stimuli/S_ambi40.png","他人","Image","朋友","Mismatch","f","false","Practice"
"","","","","","html-keyboard-response","51","520731","0.0-7.0-0.0-1.19","null","<span style='color:red; font-size: 70px;'>错误! </span>","null","","","","","","","","","","","","","","","","","","","","","","","","","feedback"
"","","","","","psychophysics","52","523512","0.0-7.0-0.0-0.20","null","","null","","","","","","","","","","","","","key","null","25.07872727272651","1200","670.625","3_Stimuli/S_ambi40.png","朋友","Image","朋友","Match","j","false","Practice"
"","","","","","html-keyboard-response","53","523822","0.0-7.0-0.0-1.20","null","<span class='add_' style='color:yellow; font-size: 70px;'> 太慢! </span>","null","","","","","","","","","","","","","","","","","","","","","","","","","feedback"
"","","","","","psychophysics","54","526547","0.0-7.0-0.0-0.21","null","","null","","","","","","","","","","","","","key","null","23.33706896551704","1200","670.625","3_Stimuli/T_ambi40.png","自我","Image","自我","Match","j","false","Practice"
"","","","","","html-keyboard-response","55","526853","0.0-7.0-0.0-1.21","null","<span class='add_' style='color:yellow; font-size: 70px;'> 太慢! </span>","null","","","","","","","","","","","","","","","","","","","","","","","","","feedback"
"","","","","","psychophysics","56","529628","0.0-7.0-0.0-0.22","null","","null","","","","","","","","","","","","","key","null","22.37245901639394","1200","670.625","3_Stimuli/C_ambi40.png","自我","Word","他人","Mismatch","f","false","Practice"
"","","","","","html-keyboard-response","57","529935","0.0-7.0-0.0-1.22","null","<span class='add_' style='color:yellow; font-size: 70px;'> 太慢! </span>","null","","","","","","","","","","","","","","","","","","","","","","","","","feedback"
"","","","","","psychophysics","58","531368","0.0-7.0-0.0-0.23","270","","f","","","","","","","","","","","","","key","f","25.16357142857201","1200","670.625","3_Stimuli/T_ambi40.png","他人","Word","自我","Mismatch","f","true","Practice"
"","","","","","html-keyboard-response","59","531681","0.0-7.0-0.0-1.23","null","<span style='color:GreenYellow; font-size: 70px;'>正确! </span>","null","","","","","","","","","","","","","","","","","","","","","","","","","feedback"
"","","","","","html-keyboard-response","60","572330","0.0-7.0-1.0-0.0","40647","<style>.context{color:white; font-size: 35px; line-height:40px}</style>                        <div><p class='context'>您正确回答了21% 的试次。</p><p class='context'>您的平均反应时为923毫秒。</p><p> <div style = 'color: green'><按空格键至下页></div></p>"," ","","","","","","","","","","","","","","","","","","","","","","","","",""
"","","","","","instructions","61","608660","0.0-7.0-1.0-1.0","36328","","","","","","","","","","","","","","[{""page_index"":0,""viewing_time"":6994},{""page_index"":1,""viewing_time"":27331},{""page_index"":2,""viewing_time"":2003}]","","","","","","","","","","","","",""
"","","","","","psychophysics","62","610745","0.0-7.1-0.1-0.24","928","","j","","","","","","","","","","","","","key","j","24.907073170731763","1200","670.625","3_Stimuli/T_ambi40.png","他人","Word","自我","Mismatch","f","false","Practice"
"","","","","","html-keyboard-response","63","611049","0.0-7.1-0.1-1.24","null","<span style='color:red; font-size: 70px;'>错误! </span>","null","","","","","","","","","","","","","","","","","","","","","","","","","feedback"
"","","","","","psychophysics","64","613091","0.0-7.1-0.1-0.25","876","","f","","","","","","","","","","","","","key","f","23.19241379310334","1200","670.625","3_Stimuli/C_ambi40.png","自我","Image","他人","Mismatch","f","true","Practice"
"","","","","","html-keyboard-response","65","613404","0.0-7.1-0.1-1.25","null","<span style='color:GreenYellow; font-size: 70px;'>正确! </span>","null","","","","","","","","","","","","","","","","","","","","","","","","","feedback"
"","","","","","psychophysics","66","615861","0.0-7.1-0.1-0.26","1299","","f","","","","","","","","","","","","","key","f","24.80969072164987","1200","670.625","3_Stimuli/T_ambi40.png","朋友","Word","自我","Mismatch","f","true","Practice"
"","","","","","html-keyboard-response","67","616171","0.0-7.1-0.1-1.26","null","<span style='color:GreenYellow; font-size: 70px;'>正确! </span>","null","","","","","","","","","","","","","","","","","","","","","","","","","feedback"
"","","","","","psychophysics","68","618667","0.0-7.1-0.1-0.27","1335","","j","","","","","","","","","","","","","key","j","24.101782178218098","1200","670.625","3_Stimuli/C_ambi40.png","他人","Image","他人","Match","j","true","Practice"
"","","","","","html-keyboard-response","69","618989","0.0-7.1-0.1-1.27","null","<span style='color:GreenYellow; font-size: 70px;'>正确! </span>","null","","","","","","","","","","","","","","","","","","","","","","","","","feedback"
"","","","","","psychophysics","70","621700","0.0-7.1-0.1-0.28","1554","","f","","","","","","","","","","","","","key","f","24.496000000000507","1200","670.625","3_Stimuli/T_ambi40.png","朋友","Image","自我","Mismatch","f","true","Practice"
"","","","","","html-keyboard-response","71","622016","0.0-7.1-0.1-1.28","null","<span class='add_' style='color:yellow; font-size: 70px;'> 太慢! </span>","null","","","","","","","","","","","","","","","","","","","","","","","","","feedback"
"","","","","","psychophysics","72","624527","0.0-7.1-0.1-0.29","1353","","j","","","","","","","","","","","","","key","j","24.019223300970694","1200","670.625","3_Stimuli/S_ambi40.png","朋友","Image","朋友","Match","j","true","Practice"
"","","","","","html-keyboard-response","73","624838","0.0-7.1-0.1-1.29","null","<span style='color:GreenYellow; font-size: 70px;'>正确! </span>","null","","","","","","","","","","","","","","","","","","","","","","","","","feedback"
"","","","","","psychophysics","74","627132","0.0-7.1-0.1-0.30","1039","","j","","","","","","","","","","","","","key","j","23.183505154639654","1200","670.625","3_Stimuli/T_ambi40.png","自我","Word","自我","Match","j","true","Practice"
"","","","","","html-keyboard-response","75","627445","0.0-7.1-0.1-1.30","null","<span style='color:GreenYellow; font-size: 70px;'>正确! </span>","null","","","","","","","","","","","","","","","","","","","","","","","","","feedback"
"","","","","","psychophysics","76","629620","0.0-7.1-0.1-0.31","1008","","j","","","","","","","","","","","","","key","j","22.250833333332896","1200","670.625","3_Stimuli/C_ambi40.png","他人","Word","他人","Match","j","true","Practice"
"","","","","","html-keyboard-response","77","629923","0.0-7.1-0.1-1.31","null","<span style='color:GreenYellow; font-size: 70px;'>正确! </span>","null","","","","","","","","","","","","","","","","","","","","","","","","","feedback"
"","","","","","psychophysics","78","631696","0.0-7.1-0.1-0.32","543","","j","","","","","","","","","","","","","key","j","24.219166666667054","1200","670.625","3_Stimuli/C_ambi40.png","他人","Word","他人","Match","j","true","Practice"
"","","","","","html-keyboard-response","79","632000","0.0-7.1-0.1-1.32","null","<span style='color:GreenYellow; font-size: 70px;'>正确! </span>","null","","","","","","","","","","","","","","","","","","","","","","","","","feedback"
"","","","","","psychophysics","80","634238","0.0-7.1-0.1-0.33","973","","f","","","","","","","","","","","","","key","f","23.691827956988895","1200","670.625","3_Stimuli/S_ambi40.png","自我","Word","朋友","Mismatch","f","true","Practice"
"","","","","","html-keyboard-response","81","634549","0.0-7.1-0.1-1.33","null","<span style='color:GreenYellow; font-size: 70px;'>正确! </span>","null","","","","","","","","","","","","","","","","","","","","","","","","","feedback"
"","","","","","psychophysics","82","636912","0.0-7.1-0.1-0.34","1208","","f","","","","","","","","","","","","","key","f","24.744893617021475","1200","670.625","3_Stimuli/C_ambi40.png","朋友","Image","他人","Mismatch","f","true","Practice"
"","","","","","html-keyboard-response","83","637216","0.0-7.1-0.1-1.34","null","<span style='color:GreenYellow; font-size: 70px;'>正确! </span>","null","","","","","","","","","","","","","","","","","","","","","","","","","feedback"
"","","","","","psychophysics","84","639672","0.0-7.1-0.1-0.35","1299","","f","","","","","","","","","","","","","key","f","23.539223300971237","1200","670.625","3_Stimuli/S_ambi40.png","自我","Image","朋友","Mismatch","f","true","Practice"
"","","","","","html-keyboard-response","85","639986","0.0-7.1-0.1-1.35","null","<span style='color:GreenYellow; font-size: 70px;'>正确! </span>","null","","","","","","","","","","","","","","","","","","","","","","","","","feedback"
"","","","","","psychophysics","86","642759","0.0-7.1-0.1-0.36","null","","null","","","","","","","","","","","","","key","null","25.96698113207547","1200","670.625","3_Stimuli/T_ambi40.png","他人","Image","自我","Mismatch","f","false","Practice"
"","","","","","html-keyboard-response","87","643065","0.0-7.1-0.1-1.36","null","<span class='add_' style='color:yellow; font-size: 70px;'> 太慢! </span>","null","","","","","","","","","","","","","","","","","","","","","","","","","feedback"
"","","","","","psychophysics","88","644254","0.0-7.1-0.1-0.37","33","","j","","","","","","","","","","","","","key","j","24.95130434782629","1200","670.625","3_Stimuli/C_ambi40.png","自我","Word","他人","Mismatch","f","false","Practice"
"","","","","","html-keyboard-response","89","644561","0.0-7.1-0.1-1.37","null","<span style='color:yellow; font-size: 70px;'>过快! </span>","null","","","","","","","","","","","","","","","","","","","","","","","","","feedback"
"","","","","","psychophysics","90","646901","0.0-7.1-0.1-0.38","1168","","f","","","","","","","","","","","","","key","f","22.713725490195394","1200","670.625","3_Stimuli/S_ambi40.png","朋友","Word","朋友","Match","j","false","Practice"
"","","","","","html-keyboard-response","91","647207","0.0-7.1-0.1-1.38","null","<span style='color:red; font-size: 70px;'>错误! </span>","null","","","","","","","","","","","","","","","","","","","","","","","","","feedback"
"","","","","","psychophysics","92","649278","0.0-7.1-0.1-0.39","907","","j","","","","","","","","","","","","","key","j","22.945393258427124","1200","670.625","3_Stimuli/T_ambi40.png","自我","Image","自我","Match","j","true","Practice"
"","","","","","html-keyboard-response","93","649614","0.0-7.1-0.1-1.39","null","<span style='color:GreenYellow; font-size: 70px;'>正确! </span>","null","","","","","","","","","","","","","","","","","","","","","","","","","feedback"
"","","","","","psychophysics","94","651397","0.0-7.1-0.1-0.40","487","","j","","","","","","","","","","","","","key","j","25.604705882352874","1200","670.625","3_Stimuli/T_ambi40.png","自我","Image","自我","Match","j","true","Practice"
"","","","","","html-keyboard-response","95","651710","0.0-7.1-0.1-1.40","null","<span style='color:GreenYellow; font-size: 70px;'>正确! </span>","null","","","","","","","","","","","","","","","","","","","","","","","","","feedback"
"","","","","","psychophysics","96","654265","0.0-7.1-0.1-0.41","1336","","f","","","","","","","","","","","","","key","f","23.434018691588264","1200","670.625","3_Stimuli/C_ambi40.png","他人","Image","他人","Match","j","false","Practice"
"","","","","","html-keyboard-response","97","654577","0.0-7.1-0.1-1.41","null","<span style='color:red; font-size: 70px;'>错误! </span>","null","","","","","","","","","","","","","","","","","","","","","","","","","feedback"
"","","","","","psychophysics","98","656865","0.0-7.1-0.1-0.42","1117","","f","","","","","","","","","","","","","key","f","23.461666666667345","1200","670.625","3_Stimuli/C_ambi40.png","朋友","Word","他人","Mismatch","f","true","Practice"
"","","","","","html-keyboard-response","99","657175","0.0-7.1-0.1-1.42","null","<span style='color:GreenYellow; font-size: 70px;'>正确! </span>","null","","","","","","","","","","","","","","","","","","","","","","","","","feedback"
"","","","","","psychophysics","100","659223","0.0-7.1-0.1-0.43","883","","j","","","","","","","","","","","","","key","j","23.57929411764695","1200","670.625","3_Stimuli/S_ambi40.png","朋友","Image","朋友","Match","j","true","Practice"
"","","","","","html-keyboard-response","101","659556","0.0-7.1-0.1-1.43","null","<span style='color:GreenYellow; font-size: 70px;'>正确! </span>","null","","","","","","","","","","","","","","","","","","","","","","","","","feedback"
"","","","","","psychophysics","102","661631","0.0-7.1-0.1-0.44","820","","j","","","","","","","","","","","","","key","j","23.480000000000107","1200","670.625","3_Stimuli/S_ambi40.png","他人","Word","朋友","Mismatch","f","false","Practice"
"","","","","","html-keyboard-response","103","661943","0.0-7.1-0.1-1.44","null","<span style='color:red; font-size: 70px;'>错误! </span>","null","","","","","","","","","","","","","","","","","","","","","","","","","feedback"
"","","","","","psychophysics","104","664056","0.0-7.1-0.1-0.45","946","","j","","","","","","","","","","","","","key","j","24.843095238094627","1200","670.625","3_Stimuli/S_ambi40.png","朋友","Word","朋友","Match","j","true","Practice"
"","","","","","html-keyboard-response","105","664362","0.0-7.1-0.1-1.45","null","<span style='color:GreenYellow; font-size: 70px;'>正确! </span>","null","","","","","","","","","","","","","","","","","","","","","","","","","feedback"
"","","","","","psychophysics","106","666406","0.0-7.1-0.1-0.46","889","","f","","","","","","","","","","","","","key","f","24.565432098766006","1200","670.625","3_Stimuli/S_ambi40.png","他人","Image","朋友","Mismatch","f","true","Practice"
"","","","","","html-keyboard-response","107","666713","0.0-7.1-0.1-1.46","null","<span style='color:GreenYellow; font-size: 70px;'>正确! </span>","null","","","","","","","","","","","","","","","","","","","","","","","","","feedback"
"","","","","","psychophysics","108","668691","0.0-7.1-0.1-0.47","766","","j","","","","","","","","","","","","","key","j","24.126419753086306","1200","670.625","3_Stimuli/T_ambi40.png","自我","Word","自我","Match","j","true","Practice"
"","","","","","html-keyboard-response","109","669025","0.0-7.1-0.1-1.47","null","<span style='color:GreenYellow; font-size: 70px;'>正确! </span>","null","","","","","","","","","","","","","","","","","","","","","","","","","feedback"
"","","","","","html-keyboard-response","110","672139","0.0-7.1-1.1-0.1","3111","<style>.context{color:white; font-size: 35px; line-height:40px}</style>                        <div><p class='context'>您正确回答了75% 的试次。</p><p class='context'>您的平均反应时为1027毫秒。</p><p> <div style = 'color: green'><按空格键至下页></div></p>"," ","","","","","","","","","","","","","","","","","","","","","","","","",""
"","","","","","instructions","111","700944","0.0-7.1-1.1-1.1","28806","","","","","","","","","","","","","","[{""page_index"":0,""viewing_time"":6691},{""page_index"":1,""viewing_time"":16586},{""page_index"":2,""viewing_time"":5528}]","","","","","","","","","","","","",""
"","","","","","psychophysics","112","703661","0.0-7.2-0.2-0.48","null","","null","","","","","","","","","","","","","key","null","23.673684210526723","1200","670.625","3_Stimuli/S_ambi40.png","朋友","Word","朋友","Match","j","false","Practice"
"","","","","","html-keyboard-response","113","703982","0.0-7.2-0.2-1.48","null","<span class='add_' style='color:yellow; font-size: 70px;'> 太慢! </span>","null","","","","","","","","","","","","","","","","","","","","","","","","","feedback"
"","","","","","psychophysics","114","705865","0.0-7.2-0.2-0.49","587","","j","","","","","","","","","","","","","key","j","23.823589743589626","1200","670.625","3_Stimuli/T_ambi40.png","自我","Image","自我","Match","j","true","Practice"
"","","","","","html-keyboard-response","115","706171","0.0-7.2-0.2-1.49","null","<span style='color:GreenYellow; font-size: 70px;'>正确! </span>","null","","","","","","","","","","","","","","","","","","","","","","","","","feedback"
"","","","","","psychophysics","116","708205","0.0-7.2-0.2-0.50","856","","j","","","","","","","","","","","","","key","j","23.165116279069228","1200","670.625","3_Stimuli/S_ambi40.png","朋友","Image","朋友","Match","j","true","Practice"
"","","","","","html-keyboard-response","117","708545","0.0-7.2-0.2-1.50","null","<span style='color:GreenYellow; font-size: 70px;'>正确! </span>","null","","","","","","","","","","","","","","","","","","","","","","","","","feedback"
"","","","","","psychophysics","118","710506","0.0-7.2-0.2-0.51","792","","f","","","","","","","","","","","","","key","f","24.778441558440832","1200","670.625","3_Stimuli/T_ambi40.png","朋友","Image","自我","Mismatch","f","true","Practice"
"","","","","","html-keyboard-response","119","710808","0.0-7.2-0.2-1.51","null","<span style='color:GreenYellow; font-size: 70px;'>正确! </span>","null","","","","","","","","","","","","","","","","","","","","","","","","","feedback"
"","","","","","psychophysics","120","712930","0.0-7.2-0.2-0.52","955","","f","","","","","","","","","","","","","key","f","24.83857142857215","1200","670.625","3_Stimuli/T_ambi40.png","朋友","Word","自我","Mismatch","f","true","Practice"
"","","","","","html-keyboard-response","121","713233","0.0-7.2-0.2-1.52","null","<span style='color:GreenYellow; font-size: 70px;'>正确! </span>","null","","","","","","","","","","","","","","","","","","","","","","","","","feedback"
"","","","","","psychophysics","122","715147","0.0-7.2-0.2-0.53","645","","j","","","","","","","","","","","","","key","j","24.574025974025368","1200","670.625","3_Stimuli/T_ambi40.png","自我","Word","自我","Match","j","true","Practice"
"","","","","","html-keyboard-response","123","715448","0.0-7.2-0.2-1.53","null","<span style='color:GreenYellow; font-size: 70px;'>正确! </span>","null","","","","","","","","","","","","","","","","","","","","","","","","","feedback"
"","","","","","psychophysics","124","717699","0.0-7.2-0.2-0.54","1086","","j","","","","","","","","","","","","","key","j","23.415578947368225","1200","670.625","3_Stimuli/C_ambi40.png","他人","Word","他人","Match","j","true","Practice"
"","","","","","html-keyboard-response","125","718006","0.0-7.2-0.2-1.54","null","<span style='color:GreenYellow; font-size: 70px;'>正确! </span>","null","","","","","","","","","","","","","","","","","","","","","","","","","feedback"
"","","","","","psychophysics","126","720381","0.0-7.2-0.2-0.55","1218","","f","","","","","","","","","","","","","key","f","23.579797979798215","1200","670.625","3_Stimuli/C_ambi40.png","自我","Word","他人","Mismatch","f","true","Practice"
"","","","","","html-keyboard-response","127","720685","0.0-7.2-0.2-1.55","null","<span style='color:GreenYellow; font-size: 70px;'>正确! </span>","null","","","","","","","","","","","","","","","","","","","","","","","","","feedback"
"","","","","","psychophysics","128","723402","0.0-7.2-0.2-0.56","null","","null","","","","","","","","","","","","","key","null","24.00072072072034","1200","670.625","3_Stimuli/C_ambi40.png","朋友","Image","他人","Mismatch","f","false","Practice"
"","","","","","html-keyboard-response","129","723712","0.0-7.2-0.2-1.56","null","<span class='add_' style='color:yellow; font-size: 70px;'> 太慢! </span>","null","","","","","","","","","","","","","","","","","","","","","","","","","feedback"
"","","","","","psychophysics","130","726116","0.0-7.2-0.2-0.57","1248","","f","","","","","","","","","","","","","key","f","23.70579999999958","1200","670.625","3_Stimuli/C_ambi40.png","自我","Image","他人","Mismatch","f","true","Practice"
"","","","","","html-keyboard-response","131","726426","0.0-7.2-0.2-1.57","null","<span style='color:GreenYellow; font-size: 70px;'>正确! </span>","null","","","","","","","","","","","","","","","","","","","","","","","","","feedback"
"","","","","","psychophysics","132","729150","0.0-7.2-0.2-0.58","null","","null","","","","","","","","","","","","","key","null","23.94283185840741","1200","670.625","3_Stimuli/S_ambi40.png","他人","Image","朋友","Mismatch","f","false","Practice"
"","","","","","html-keyboard-response","133","729455","0.0-7.2-0.2-1.58","null","<span class='add_' style='color:yellow; font-size: 70px;'> 太慢! </span>","null","","","","","","","","","","","","","","","","","","","","","","","","","feedback"
"","","","","","psychophysics","134","731369","0.0-7.2-0.2-0.59","748","","j","","","","","","","","","","","","","key","j","23.39875000000029","1200","670.625","3_Stimuli/T_ambi40.png","自我","Image","自我","Match","j","true","Practice"
"","","","","","html-keyboard-response","135","731671","0.0-7.2-0.2-1.59","null","<span style='color:GreenYellow; font-size: 70px;'>正确! </span>","null","","","","","","","","","","","","","","","","","","","","","","","","","feedback"
"","","","","","psychophysics","136","734090","0.0-7.2-0.2-0.60","1260","","f","","","","","","","","","","","","","key","f","23.962199999999722","1200","670.625","3_Stimuli/C_ambi40.png","他人","Image","他人","Match","j","false","Practice"
"","","","","","html-keyboard-response","137","734395","0.0-7.2-0.2-1.60","null","<span style='color:red; font-size: 70px;'>错误! </span>","null","","","","","","","","","","","","","","","","","","","","","","","","","feedback"
"","","","","","psychophysics","138","736132","0.0-7.2-0.2-0.61","572","","j","","","","","","","","","","","","","key","j","23.127027027027342","1200","670.625","3_Stimuli/T_ambi40.png","自我","Word","自我","Match","j","true","Practice"
"","","","","","html-keyboard-response","139","736438","0.0-7.2-0.2-1.61","null","<span style='color:GreenYellow; font-size: 70px;'>正确! </span>","null","","","","","","","","","","","","","","","","","","","","","","","","","feedback"
"","","","","","psychophysics","140","738766","0.0-7.2-0.2-0.62","1163","","f","","","","","","","","","","","","","key","f","24.44688172043071","1200","670.625","3_Stimuli/C_ambi40.png","朋友","Word","他人","Mismatch","f","true","Practice"
"","","","","","html-keyboard-response","141","739072","0.0-7.2-0.2-1.62","null","<span style='color:GreenYellow; font-size: 70px;'>正确! </span>","null","","","","","","","","","","","","","","","","","","","","","","","","","feedback"
"","","","","","psychophysics","142","741855","0.0-7.2-0.2-0.63","null","","null","","","","","","","","","","","","","key","null","24.277522123893682","1200","670.625","3_Stimuli/T_ambi40.png","他人","Image","自我","Mismatch","f","false","Practice"
"","","","","","html-keyboard-response","143","742169","0.0-7.2-0.2-1.63","null","<span class='add_' style='color:yellow; font-size: 70px;'> 太慢! </span>","null","","","","","","","","","","","","","","","","","","","","","","","","","feedback"
"","","","","","psychophysics","144","744920","0.0-7.2-0.2-0.64","null","","null","","","","","","","","","","","","","key","null","25.01759259259281","1200","670.625","3_Stimuli/T_ambi40.png","他人","Word","自我","Mismatch","f","false","Practice"
"","","","","","html-keyboard-response","145","745234","0.0-7.2-0.2-1.64","null","<span class='add_' style='color:yellow; font-size: 70px;'> 太慢! </span>","null","","","","","","","","","","","","","","","","","","","","","","","","","feedback"
"","","","","","psychophysics","146","747218","0.0-7.2-0.2-0.65","824","","j","","","","","","","","","","","","","key","j","25.15076923076935","1200","670.625","3_Stimuli/S_ambi40.png","自我","Image","朋友","Mismatch","f","false","Practice"
"","","","","","html-keyboard-response","147","747536","0.0-7.2-0.2-1.65","null","<span style='color:red; font-size: 70px;'>错误! </span>","null","","","","","","","","","","","","","","","","","","","","","","","","","feedback"
"","","","","","psychophysics","148","750265","0.0-7.2-0.2-0.66","null","","null","","","","","","","","","","","","","key","null","24.198558558558894","1200","670.625","3_Stimuli/S_ambi40.png","朋友","Image","朋友","Match","j","false","Practice"
"","","","","","html-keyboard-response","149","750580","0.0-7.2-0.2-1.66","null","<span class='add_' style='color:yellow; font-size: 70px;'> 太慢! </span>","null","","","","","","","","","","","","","","","","","","","","","","","","","feedback"
"","","","","","psychophysics","150","752243","0.0-7.2-0.2-0.67","409","","j","","","","","","","","","","","","","key","j","24.911076923076493","1200","670.625","3_Stimuli/S_ambi40.png","朋友","Word","朋友","Match","j","true","Practice"
"","","","","","html-keyboard-response","151","752554","0.0-7.2-0.2-1.67","null","<span style='color:GreenYellow; font-size: 70px;'>正确! </span>","null","","","","","","","","","","","","","","","","","","","","","","","","","feedback"
"","","","","","psychophysics","152","755207","0.0-7.2-0.2-0.68","1499","","f","","","","","","","","","","","","","key","f","23.58126126126038","1200","670.625","3_Stimuli/S_ambi40.png","自我","Word","朋友","Mismatch","f","true","Practice"
"","","","","","html-keyboard-response","153","755513","0.0-7.2-0.2-1.68","null","<span style='color:GreenYellow; font-size: 70px;'>正确! </span>","null","","","","","","","","","","","","","","","","","","","","","","","","","feedback"
"","","","","","psychophysics","154","757713","0.0-7.2-0.2-0.69","1030","","f","","","","","","","","","","","","","key","f","24.75333333333376","1200","670.625","3_Stimuli/C_ambi40.png","他人","Image","他人","Match","j","false","Practice"
"","","","","","html-keyboard-response","155","758036","0.0-7.2-0.2-1.69","null","<span style='color:red; font-size: 70px;'>错误! </span>","null","","","","","","","","","","","","","","","","","","","","","","","","","feedback"
"","","","","","psychophysics","156","760749","0.0-7.2-0.2-0.70","null","","null","","","","","","","","","","","","","key","null","23.89513513513501","1200","670.625","3_Stimuli/S_ambi40.png","他人","Word","朋友","Mismatch","f","false","Practice"
"","","","","","html-keyboard-response","157","761059","0.0-7.2-0.2-1.70","null","<span class='add_' style='color:yellow; font-size: 70px;'> 太慢! </span>","null","","","","","","","","","","","","","","","","","","","","","","","","","feedback"
"","","","","","psychophysics","158","763555","0.0-7.2-0.2-0.71","1323","","j","","","","","","","","","","","","","key","j","22.177657657658454","1200","670.625","3_Stimuli/C_ambi40.png","他人","Word","他人","Match","j","true","Practice"
"","","","","","html-keyboard-response","159","763871","0.0-7.2-0.2-1.71","null","<span style='color:GreenYellow; font-size: 70px;'>正确! </span>","null","","","","","","","","","","","","","","","","","","","","","","","","","feedback"
"","","","","","html-keyboard-response","160","767504","0.0-7.2-1.2-0.2","3630","<style>.context{color:white; font-size: 35px; line-height:40px}</style>                        <div><p class='context'>您正确回答了58% 的试次。</p><p class='context'>您的平均反应时为936毫秒。</p><p> <div style = 'color: green'><按空格键至下页></div></p>"," ","","","","","","","","","","","","","","","","","","","","","","","","",""
"","","","","","instructions","161","790365","0.0-7.2-1.2-1.2","22859","","","","","","","","","","","","","","[{""page_index"":0,""viewing_time"":4895},{""page_index"":1,""viewing_time"":15417},{""page_index"":2,""viewing_time"":2547}]","","","","","","","","","","","","",""
"","","","","","psychophysics","162","792764","0.0-7.3-0.3-0.72","1231","","f","","","","","","","","","","","","","key","f","23.570400000000372","1200","670.625","3_Stimuli/C_ambi40.png","自我","Image","他人","Mismatch","f","true","Practice"
"","","","","","html-keyboard-response","163","793069","0.0-7.3-0.3-1.72","null","<span style='color:GreenYellow; font-size: 70px;'>正确! </span>","null","","","","","","","","","","","","","","","","","","","","","","","","","feedback"
"","","","","","psychophysics","164","795360","0.0-7.3-0.3-0.73","1130","","f","","","","","","","","","","","","","key","f","23.783789473683818","1200","670.625","3_Stimuli/C_ambi40.png","朋友","Image","他人","Mismatch","f","true","Practice"
"","","","","","html-keyboard-response","165","795707","0.0-7.3-0.3-1.73","null","<span style='color:GreenYellow; font-size: 70px;'>正确! </span>","null","","","","","","","","","","","","","","","","","","","","","","","","","feedback"
"","","","","","psychophysics","166","797780","0.0-7.3-0.3-0.74","909","","f","","","","","","","","","","","","","key","f","23.875294117647332","1200","670.625","3_Stimuli/S_ambi40.png","他人","Word","朋友","Mismatch","f","true","Practice"
"","","","","","html-keyboard-response","167","798089","0.0-7.3-0.3-1.74","null","<span style='color:GreenYellow; font-size: 70px;'>正确! </span>","null","","","","","","","","","","","","","","","","","","","","","","","","","feedback"
"","","","","","psychophysics","168","800344","0.0-7.3-0.3-0.75","1090","","f","","","","","","","","","","","","","key","f","23.25187499999932","1200","670.625","3_Stimuli/T_ambi40.png","他人","Image","自我","Mismatch","f","true","Practice"
"","","","","","html-keyboard-response","169","800680","0.0-7.3-0.3-1.75","null","<span style='color:GreenYellow; font-size: 70px;'>正确! </span>","null","","","","","","","","","","","","","","","","","","","","","","","","","feedback"
"","","","","","psychophysics","170","802763","0.0-7.3-0.3-0.76","924","","j","","","","","","","","","","","","","key","j","23.442954545454334","1200","670.625","3_Stimuli/C_ambi40.png","他人","Image","他人","Match","j","true","Practice"
"","","","","","html-keyboard-response","171","803096","0.0-7.3-0.3-1.76","null","<span style='color:GreenYellow; font-size: 70px;'>正确! </span>","null","","","","","","","","","","","","","","","","","","","","","","","","","feedback"
"","","","","","psychophysics","172","805192","0.0-7.3-0.3-0.77","934","","f","","","","","","","","","","","","","key","f","24.5854761904768","1200","670.625","3_Stimuli/T_ambi40.png","自我","Word","自我","Match","j","false","Practice"
"","","","","","html-keyboard-response","173","805528","0.0-7.3-0.3-1.77","null","<span style='color:red; font-size: 70px;'>错误! </span>","null","","","","","","","","","","","","","","","","","","","","","","","","","feedback"
"","","","","","psychophysics","174","807859","0.0-7.3-0.3-0.78","1176","","j","","","","","","","","","","","","","key","j","23.221010101010148","1200","670.625","3_Stimuli/C_ambi40.png","他人","Image","他人","Match","j","true","Practice"
"","","","","","html-keyboard-response","175","808175","0.0-7.3-0.3-1.78","null","<span style='color:GreenYellow; font-size: 70px;'>正确! </span>","null","","","","","","","","","","","","","","","","","","","","","","","","","feedback"
"","","","","","psychophysics","176","810512","0.0-7.3-0.3-0.79","1167","","f","","","","","","","","","","","","","key","f","24.6681720430109","1200","670.625","3_Stimuli/C_ambi40.png","自我","Word","他人","Mismatch","f","true","Practice"
"","","","","","html-keyboard-response","177","810826","0.0-7.3-0.3-1.79","null","<span style='color:GreenYellow; font-size: 70px;'>正确! </span>","null","","","","","","","","","","","","","","","","","","","","","","","","","feedback"
"","","","","","psychophysics","178","813177","0.0-7.3-0.3-0.80","1047","","j","","","","","","","","","","","","","key","j","22.270192307692085","1200","670.625","3_Stimuli/S_ambi40.png","朋友","Word","朋友","Match","j","true","Practice"
"","","","","","html-keyboard-response","179","813490","0.0-7.3-0.3-1.80","null","<span style='color:GreenYellow; font-size: 70px;'>正确! </span>","null","","","","","","","","","","","","","","","","","","","","","","","","","feedback"
"","","","","","psychophysics","180","815290","0.0-7.3-0.3-0.81","518","","j","","","","","","","","","","","","","key","j","24.57126760563459","1200","670.625","3_Stimuli/S_ambi40.png","朋友","Word","朋友","Match","j","true","Practice"
"","","","","","html-keyboard-response","181","815643","0.0-7.3-0.3-1.81","null","<span style='color:GreenYellow; font-size: 70px;'>正确! </span>","null","","","","","","","","","","","","","","","","","","","","","","","","","feedback"
"","","","","","psychophysics","182","817721","0.0-7.3-0.3-0.82","918","","f","","","","","","","","","","","","","key","f","24.522619047619326","1200","670.625","3_Stimuli/T_ambi40.png","他人","Word","自我","Mismatch","f","true","Practice"
"","","","","","html-keyboard-response","183","818029","0.0-7.3-0.3-1.82","null","<span style='color:GreenYellow; font-size: 70px;'>正确! </span>","null","","","","","","","","","","","","","","","","","","","","","","","","","feedback"
"","","","","","psychophysics","184","820437","0.0-7.3-0.3-0.83","1245","","f","","","","","","","","","","","","","key","f","24.300204081631893","1200","670.625","3_Stimuli/C_ambi40.png","朋友","Word","他人","Mismatch","f","true","Practice"
"","","","","","html-keyboard-response","185","820750","0.0-7.3-0.3-1.83","null","<span style='color:GreenYellow; font-size: 70px;'>正确! </span>","null","","","","","","","","","","","","","","","","","","","","","","","","","feedback"
"","","","","","psychophysics","186","822999","0.0-7.3-0.3-0.84","1089","","f","","","","","","","","","","","","","key","f","24.07282608695728","1200","670.625","3_Stimuli/S_ambi40.png","他人","Image","朋友","Mismatch","f","true","Practice"
"","","","","","html-keyboard-response","187","823310","0.0-7.3-0.3-1.84","null","<span style='color:GreenYellow; font-size: 70px;'>正确! </span>","null","","","","","","","","","","","","","","","","","","","","","","","","","feedback"
"","","","","","psychophysics","188","825179","0.0-7.3-0.3-0.85","702","","j","","","","","","","","","","","","","key","j","23.218987341772742","1200","670.625","3_Stimuli/T_ambi40.png","自我","Word","自我","Match","j","true","Practice"
"","","","","","html-keyboard-response","189","825507","0.0-7.3-0.3-1.85","null","<span style='color:GreenYellow; font-size: 70px;'>正确! </span>","null","","","","","","","","","","","","","","","","","","","","","","","","","feedback"
"","","","","","psychophysics","190","828240","0.0-7.3-0.3-0.86","null","","null","","","","","","","","","","","","","key","null","23.05846153846126","1200","670.625","3_Stimuli/C_ambi40.png","他人","Word","他人","Match","j","false","Practice"
"","","","","","html-keyboard-response","191","828542","0.0-7.3-0.3-1.86","null","<span class='add_' style='color:yellow; font-size: 70px;'> 太慢! </span>","null","","","","","","","","","","","","","","","","","","","","","","","","","feedback"
"","","","","","psychophysics","192","830439","0.0-7.3-0.3-0.87","736","","j","","","","","","","","","","","","","key","j","23.476708860759906","1200","670.625","3_Stimuli/T_ambi40.png","自我","Image","自我","Match","j","true","Practice"
"","","","","","html-keyboard-response","193","830789","0.0-7.3-0.3-1.87","null","<span style='color:GreenYellow; font-size: 70px;'>正确! </span>","null","","","","","","","","","","","","","","","","","","","","","","","","","feedback"
"","","","","","psychophysics","194","833191","0.0-7.3-0.3-0.88","1128","","f","","","","","","","","","","","","","key","f","23.667600000000093","1200","670.625","3_Stimuli/T_ambi40.png","朋友","Word","自我","Mismatch","f","true","Practice"
"","","","","","html-keyboard-response","195","833500","0.0-7.3-0.3-1.88","null","<span style='color:GreenYellow; font-size: 70px;'>正确! </span>","null","","","","","","","","","","","","","","","","","","","","","","","","","feedback"
"","","","","","psychophysics","196","835884","0.0-7.3-0.3-0.89","1226","","f","","","","","","","","","","","","","key","f","23.263564356435598","1200","670.625","3_Stimuli/T_ambi40.png","朋友","Image","自我","Mismatch","f","true","Practice"
"","","","","","html-keyboard-response","197","836190","0.0-7.3-0.3-1.89","null","<span style='color:GreenYellow; font-size: 70px;'>正确! </span>","null","","","","","","","","","","","","","","","","","","","","","","","","","feedback"
"","","","","","psychophysics","198","838462","0.0-7.3-0.3-0.90","1100","","f","","","","","","","","","","","","","key","f","23.701684210526658","1200","670.625","3_Stimuli/S_ambi40.png","自我","Word","朋友","Mismatch","f","true","Practice"
"","","","","","html-keyboard-response","199","838772","0.0-7.3-0.3-1.90","null","<span style='color:GreenYellow; font-size: 70px;'>正确! </span>","null","","","","","","","","","","","","","","","","","","","","","","","","","feedback"
"","","","","","psychophysics","200","840968","0.0-7.3-0.3-0.91","1030","","j","","","","","","","","","","","","","key","j","24.89023255813883","1200","670.625","3_Stimuli/S_ambi40.png","朋友","Image","朋友","Match","j","true","Practice"
"","","","","","html-keyboard-response","201","841274","0.0-7.3-0.3-1.91","null","<span style='color:GreenYellow; font-size: 70px;'>正确! </span>","null","","","","","","","","","","","","","","","","","","","","","","","","","feedback"
"","","","","","psychophysics","202","843056","0.0-7.3-0.3-0.92","623","","j","","","","","","","","","","","","","key","j","23.78864864864846","1200","670.625","3_Stimuli/S_ambi40.png","朋友","Image","朋友","Match","j","true","Practice"
"","","","","","html-keyboard-response","203","843373","0.0-7.3-0.3-1.92","null","<span style='color:GreenYellow; font-size: 70px;'>正确! </span>","null","","","","","","","","","","","","","","","","","","","","","","","","","feedback"
"","","","","","psychophysics","204","845439","0.0-7.3-0.3-0.93","902","","f","","","","","","","","","","","","","key","f","23.64720930232596","1200","670.625","3_Stimuli/S_ambi40.png","自我","Image","朋友","Mismatch","f","true","Practice"
"","","","","","html-keyboard-response","205","845753","0.0-7.3-0.3-1.93","null","<span style='color:GreenYellow; font-size: 70px;'>正确! </span>","null","","","","","","","","","","","","","","","","","","","","","","","","","feedback"
"","","","","","psychophysics","206","848093","0.0-7.3-0.3-0.94","1112","","j","","","","","","","","","","","","","key","j","23.466464646465163","1200","670.625","3_Stimuli/T_ambi40.png","自我","Image","自我","Match","j","true","Practice"
"","","","","","html-keyboard-response","207","848432","0.0-7.3-0.3-1.94","null","<span style='color:GreenYellow; font-size: 70px;'>正确! </span>","null","","","","","","","","","","","","","","","","","","","","","","","","","feedback"
"","","","","","psychophysics","208","850831","0.0-7.3-0.3-0.95","1237","","j","","","","","","","","","","","","","key","j","24.613124999999854","1200","670.625","3_Stimuli/C_ambi40.png","他人","Word","他人","Match","j","true","Practice"
"","","","","","html-keyboard-response","209","851134","0.0-7.3-0.3-1.95","null","<span style='color:GreenYellow; font-size: 70px;'>正确! </span>","null","","","","","","","","","","","","","","","","","","","","","","","","","feedback"
"","","","","","html-keyboard-response","210","976423","0.0-8.0","125287","<style>.context{color:white; font-size: 35px; line-height:40px}</style>                          <div><p class='context'>您正确回答了92% 的试次。</p><p class='context'>您的平均反应时为1011毫秒。</p><p class='context'>恭喜您完成练习。现在请休息3~5分钟。</p><p class='context'>之后，按任意键进入正式实验。需要注意的是，正式实验将不再提供反应是否正确的反馈。</p><p class='footer' style='font-size: 35px; line-height:40px;'>请在进入正式实验实验之前将您的<span style='color: lightgreen;'>食指</span>放在电脑键盘的相应键位上进行按键。</p>"," ","","","","","","","","","","","","","","","","","","","","","","","","",""
"","","","","","psychophysics","211","978600","0.0-9.0-0.0-0.0","1013","","j","","","","","","","","","","","","","key","j","24.235056179775754","1200","670.625","3_Stimuli/C_ambi40.png","他人","Image","他人","Match","j","true","Formal"
"","","","","","psychophysics","212","981082","0.0-9.0-0.0-0.1","1277","","j","","","","","","","","","","","","","key","j","23.094528301886967","1200","670.625","3_Stimuli/S_ambi40.png","朋友","Image","朋友","Match","j","true","Formal"
"","","","","","psychophysics","213","982985","0.0-9.0-0.0-0.2","746","","f","","","","","","","","","","","","","key","f","22.635121951219002","1200","670.625","3_Stimuli/T_ambi40.png","朋友","Image","自我","Mismatch","f","true","Formal"
"","","","","","psychophysics","214","984911","0.0-9.0-0.0-0.3","771","","j","","","","","","","","","","","","","key","j","23.92924999999959","1200","670.625","3_Stimuli/C_ambi40.png","他人","Word","他人","Match","j","true","Formal"
"","","","","","psychophysics","215","986633","0.0-9.0-0.0-0.4","560","","j","","","","","","","","","","","","","key","j","24.827941176471274","1200","670.625","3_Stimuli/T_ambi40.png","自我","Image","自我","Match","j","true","Formal"
"","","","","","psychophysics","216","988506","0.0-9.0-0.0-0.5","709","","f","","","","","","","","","","","","","key","f","22.92899999999936","1200","670.625","3_Stimuli/C_ambi40.png","朋友","Word","他人","Mismatch","f","true","Formal"
"","","","","","psychophysics","217","990391","0.0-9.0-0.0-0.6","716","","j","","","","","","","","","","","","","key","j","24.30763157894743","1200","670.625","3_Stimuli/S_ambi40.png","自我","Image","朋友","Mismatch","f","false","Formal"
"","","","","","psychophysics","218","992928","0.0-9.0-0.0-0.7","1372","","j","","","","","","","","","","","","","key","j","25.018585858585528","1200","670.625","3_Stimuli/S_ambi40.png","朋友","Word","朋友","Match","j","true","Formal"
"","","","","","psychophysics","219","995093","0.0-9.0-0.0-0.8","1000","","f","","","","","","","","","","","","","key","f","25.768536585366082","1200","670.625","3_Stimuli/T_ambi40.png","他人","Image","自我","Mismatch","f","true","Formal"
"","","","","","psychophysics","220","997611","0.0-9.0-0.0-0.9","1345","","j","","","","","","","","","","","","","key","j","24.456831683168456","1200","670.625","3_Stimuli/T_ambi40.png","自我","Word","自我","Match","j","true","Formal"
"","","","","","psychophysics","221","999618","0.0-9.0-0.0-0.10","842","","j","","","","","","","","","","","","","key","j","23.167209302325634","1200","670.625","3_Stimuli/S_ambi40.png","朋友","Word","朋友","Match","j","true","Formal"
"","","","","","psychophysics","222","1001404","0.0-9.0-0.0-0.11","619","","j","","","","","","","","","","","","","key","j","24.796056338028432","1200","670.625","3_Stimuli/S_ambi40.png","朋友","Image","朋友","Match","j","true","Formal"
"","","","","","psychophysics","223","1003350","0.0-9.0-0.0-0.12","790","","f","","","","","","","","","","","","","key","f","25.013246753245483","1200","670.625","3_Stimuli/T_ambi40.png","他人","Word","自我","Mismatch","f","true","Formal"
"","","","","","psychophysics","224","1005506","0.0-9.0-0.0-0.13","987","","f","","","","","","","","","","","","","key","f","24.415632183907082","1200","670.625","3_Stimuli/S_ambi40.png","他人","Word","朋友","Mismatch","f","true","Formal"
"","","","","","psychophysics","225","1008223","0.0-9.0-0.0-0.14","null","","null","","","","","","","","","","","","","key","null","22.625042016806763","1200","670.625","3_Stimuli/C_ambi40.png","朋友","Image","他人","Mismatch","f","false","Formal"
"","","","","","psychophysics","226","1010333","0.0-9.0-0.0-0.15","948","","f","","","","","","","","","","","","","key","f","22.766813186812215","1200","670.625","3_Stimuli/C_ambi40.png","他人","Image","他人","Match","j","false","Formal"
"","","","","","psychophysics","227","1012633","0.0-9.0-0.0-0.16","1138","","f","","","","","","","","","","","","","key","f","24.390967741935334","1200","670.625","3_Stimuli/C_ambi40.png","自我","Image","他人","Mismatch","f","true","Formal"
"","","","","","psychophysics","228","1014799","0.0-9.0-0.0-0.17","1008","","f","","","","","","","","","","","","","key","f","22.651827956989198","1200","670.625","3_Stimuli/S_ambi40.png","自我","Word","朋友","Mismatch","f","true","Formal"
"","","","","","psychophysics","229","1017107","0.0-9.0-0.0-0.18","1151","","f","","","","","","","","","","","","","key","f","23.48354166666589","1200","670.625","3_Stimuli/C_ambi40.png","自我","Word","他人","Mismatch","f","true","Formal"
"","","","","","psychophysics","230","1019513","0.0-9.0-0.0-0.19","1244","","j","","","","","","","","","","","","","key","j","24.352040816326532","1200","670.625","3_Stimuli/T_ambi40.png","自我","Image","自我","Match","j","true","Formal"
"","","","","","psychophysics","231","1022255","0.0-9.0-0.0-0.20","1582","","f","","","","","","","","","","","","","key","f","23.758938053097427","1200","670.625","3_Stimuli/C_ambi40.png","他人","Word","他人","Match","j","false","Formal"
"","","","","","psychophysics","232","1024461","0.0-9.0-0.0-0.21","1034","","f","","","","","","","","","","","","","key","f","23.065106382978673","1200","670.625","3_Stimuli/T_ambi40.png","朋友","Word","自我","Mismatch","f","true","Formal"
"","","","","","psychophysics","233","1026621","0.0-9.0-0.0-0.22","1000","","j","","","","","","","","","","","","","key","j","24.769534883720173","1200","670.625","3_Stimuli/S_ambi40.png","他人","Image","朋友","Mismatch","f","false","Formal"
"","","","","","psychophysics","234","1029242","0.0-9.0-0.0-0.23","1457","","j","","","","","","","","","","","","","key","j","24.237009345794263","1200","670.625","3_Stimuli/T_ambi40.png","自我","Word","自我","Match","j","true","Formal"
"","","","","","psychophysics","235","1032022","0.0-9.0-0.0-0.24","null","","null","","","","","","","","","","","","","key","null","25.07872727272757","1200","670.625","3_Stimuli/C_ambi40.png","自我","Image","他人","Mismatch","f","false","Formal"
"","","","","","psychophysics","236","1034083","0.0-9.0-0.0-0.25","885","","j","","","","","","","","","","","","","key","j","24.801463414635226","1200","670.625","3_Stimuli/S_ambi40.png","朋友","Word","朋友","Match","j","true","Formal"
"","","","","","psychophysics","237","1035952","0.0-9.0-0.0-0.26","704","","j","","","","","","","","","","","","","key","j","25.201666666666924","1200","670.625","3_Stimuli/T_ambi40.png","自我","Word","自我","Match","j","true","Formal"
"","","","","","psychophysics","238","1038407","0.0-9.0-0.0-0.27","1288","","f","","","","","","","","","","","","","key","f","23.240571428571517","1200","670.625","3_Stimuli/S_ambi40.png","他人","Image","朋友","Mismatch","f","true","Formal"
"","","","","","psychophysics","239","1040340","0.0-9.0-0.0-0.28","657","","f","","","","","","","","","","","","","key","f","24.052820512821945","1200","670.625","3_Stimuli/T_ambi40.png","朋友","Word","自我","Mismatch","f","true","Formal"
"","","","","","psychophysics","240","1043062","0.0-9.0-0.0-0.29","null","","null","","","","","","","","","","","","","key","null","22.81692307692272","1200","670.625","3_Stimuli/S_ambi40.png","自我","Word","朋友","Mismatch","f","false","Formal"
"","","","","","psychophysics","241","1045450","0.0-9.0-0.0-0.30","1230","","f","","","","","","","","","","","","","key","f","23.67280000000028","1200","670.625","3_Stimuli/T_ambi40.png","朋友","Image","自我","Mismatch","f","true","Formal"
"","","","","","psychophysics","242","1047761","0.0-9.0-0.0-0.31","1151","","f","","","","","","","","","","","","","key","f","23.379999999998656","1200","670.625","3_Stimuli/T_ambi40.png","他人","Word","自我","Mismatch","f","true","Formal"
"","","","","","psychophysics","243","1050004","0.0-9.0-0.0-0.32","1072","","f","","","","","","","","","","","","","key","f","23.85397849462536","1200","670.625","3_Stimuli/C_ambi40.png","朋友","Word","他人","Mismatch","f","true","Formal"
"","","","","","psychophysics","244","1052165","0.0-9.0-0.0-0.33","1001","","j","","","","","","","","","","","","","key","j","25.920731707317074","1200","670.625","3_Stimuli/C_ambi40.png","他人","Image","他人","Match","j","true","Formal"
"","","","","","psychophysics","245","1053847","0.0-9.0-0.0-0.34","520","","j","","","","","","","","","","","","","key","j","24.829552238807082","1200","670.625","3_Stimuli/C_ambi40.png","他人","Word","他人","Match","j","true","Formal"
"","","","","","psychophysics","246","1055766","0.0-9.0-0.0-0.35","752","","f","","","","","","","","","","","","","key","f","22.980731707316163","1200","670.625","3_Stimuli/C_ambi40.png","自我","Word","他人","Mismatch","f","true","Formal"
"","","","","","psychophysics","247","1057855","0.0-9.0-0.0-0.36","815","","f","","","","","","","","","","","","","key","f","23.620919540230098","1200","670.625","3_Stimuli/T_ambi40.png","他人","Image","自我","Mismatch","f","true","Formal"
"","","","","","psychophysics","248","1059769","0.0-9.0-0.0-0.37","746","","j","","","","","","","","","","","","","key","j","23.860769230770902","1200","670.625","3_Stimuli/S_ambi40.png","朋友","Image","朋友","Match","j","true","Formal"
"","","","","","psychophysics","249","1061857","0.0-9.0-0.0-0.38","926","","j","","","","","","","","","","","","","key","j","24.253882352939314","1200","670.625","3_Stimuli/C_ambi40.png","他人","Image","他人","Match","j","true","Formal"
"","","","","","psychophysics","250","1063636","0.0-9.0-0.0-0.39","488","","j","","","","","","","","","","","","","key","j","24.356111111109687","1200","670.625","3_Stimuli/C_ambi40.png","他人","Word","他人","Match","j","true","Formal"
"","","","","","psychophysics","251","1065419","0.0-9.0-0.0-0.40","618","","j","","","","","","","","","","","","","key","j","24.29861111111111","1200","670.625","3_Stimuli/T_ambi40.png","自我","Image","自我","Match","j","true","Formal"
"","","","","","psychophysics","252","1067840","0.0-9.0-0.0-0.41","1265","","f","","","","","","","","","","","","","key","f","23.51227722772268","1200","670.625","3_Stimuli/S_ambi40.png","他人","Word","朋友","Mismatch","f","true","Formal"
"","","","","","psychophysics","253","1069532","0.0-9.0-0.0-0.42","527","","j","","","","","","","","","","","","","key","j","24.423880597013536","1200","670.625","3_Stimuli/S_ambi40.png","朋友","Image","朋友","Match","j","true","Formal"
"","","","","","psychophysics","254","1071471","0.0-9.0-0.0-0.43","783","","f","","","","","","","","","","","","","key","f","24.88207792207998","1200","670.625","3_Stimuli/C_ambi40.png","朋友","Image","他人","Mismatch","f","true","Formal"
"","","","","","psychophysics","255","1073332","0.0-9.0-0.0-0.44","704","","j","","","","","","","","","","","","","key","j","22.708500000002097","1200","670.625","3_Stimuli/S_ambi40.png","朋友","Word","朋友","Match","j","true","Formal"
"","","","","","psychophysics","256","1075455","0.0-9.0-0.0-0.45","962","","j","","","","","","","","","","","","","key","j","23.6123595505618","1200","670.625","3_Stimuli/T_ambi40.png","自我","Word","自我","Match","j","true","Formal"
"","","","","","psychophysics","257","1077646","0.0-9.0-0.0-0.46","1034","","f","","","","","","","","","","","","","key","f","22.56604166666754","1200","670.625","3_Stimuli/S_ambi40.png","自我","Image","朋友","Mismatch","f","true","Formal"
"","","","","","psychophysics","258","1079479","0.0-9.0-0.0-0.47","666","","j","","","","","","","","","","","","","key","j","23.898421052631946","1200","670.625","3_Stimuli/T_ambi40.png","自我","Image","自我","Match","j","true","Formal"
"","","","","","psychophysics","259","1082168","0.0-9.0-0.0-0.48","1531","","j","","","","","","","","","","","","","key","j","24.86547169811312","1200","670.625","3_Stimuli/S_ambi40.png","他人","Word","朋友","Mismatch","f","false","Formal"
"","","","","","psychophysics","260","1084881","0.0-9.0-0.0-0.49","null","","null","","","","","","","","","","","","","key","null","23.376666666666175","1200","670.625","3_Stimuli/C_ambi40.png","他人","Image","他人","Match","j","false","Formal"
"","","","","","psychophysics","261","1086725","0.0-9.0-0.0-0.50","674","","f","","","","","","","","","","","","","key","f","23.113333333334406","1200","670.625","3_Stimuli/C_ambi40.png","他人","Word","他人","Match","j","false","Formal"
"","","","","","psychophysics","262","1088981","0.0-9.0-0.0-0.51","1088","","j","","","","","","","","","","","","","key","j","23.467157894738115","1200","670.625","3_Stimuli/S_ambi40.png","朋友","Image","朋友","Match","j","true","Formal"
"","","","","","psychophysics","263","1091021","0.0-9.0-0.0-0.52","868","","f","","","","","","","","","","","","","key","f","23.741882352941833","1200","670.625","3_Stimuli/T_ambi40.png","朋友","Word","自我","Mismatch","f","true","Formal"
"","","","","","psychophysics","264","1093035","0.0-9.0-0.0-0.53","856","","f","","","","","","","","","","","","","key","f","23.57690476190432","1200","670.625","3_Stimuli/T_ambi40.png","他人","Word","自我","Mismatch","f","true","Formal"
"","","","","","psychophysics","265","1095030","0.0-9.0-0.0-0.54","844","","f","","","","","","","","","","","","","key","f","22.940930232557275","1200","670.625","3_Stimuli/C_ambi40.png","自我","Word","他人","Mismatch","f","true","Formal"
"","","","","","psychophysics","266","1096868","0.0-9.0-0.0-0.55","679","","f","","","","","","","","","","","","","key","f","23.332820512820035","1200","670.625","3_Stimuli/C_ambi40.png","自我","Image","他人","Mismatch","f","true","Formal"
"","","","","","psychophysics","267","1098946","0.0-9.0-0.0-0.56","925","","f","","","","","","","","","","","","","key","f","25.080987654318804","1200","670.625","3_Stimuli/C_ambi40.png","朋友","Image","他人","Mismatch","f","true","Formal"
"","","","","","psychophysics","268","1100688","0.0-9.0-0.0-0.57","583","","f","","","","","","","","","","","","","key","f","25.43701492537355","1200","670.625","3_Stimuli/C_ambi40.png","朋友","Word","他人","Mismatch","f","true","Formal"
"","","","","","psychophysics","269","1102610","0.0-9.0-0.0-0.58","752","","f","","","","","","","","","","","","","key","f","24.108974358974358","1200","670.625","3_Stimuli/S_ambi40.png","自我","Word","朋友","Mismatch","f","true","Formal"
"","","","","","psychophysics","270","1104478","0.0-9.0-0.0-0.59","707","","j","","","","","","","","","","","","","key","j","22.918765432097846","1200","670.625","3_Stimuli/T_ambi40.png","自我","Word","自我","Match","j","true","Formal"
"","","","","","psychophysics","271","1106394","0.0-9.0-0.0-0.60","751","","f","","","","","","","","","","","","","key","f","24.503684210526682","1200","670.625","3_Stimuli/S_ambi40.png","朋友","Word","朋友","Match","j","false","Formal"
"","","","","","psychophysics","272","1108158","0.0-9.0-0.0-0.61","597","","j","","","","","","","","","","","","","key","j","23.314594594594972","1200","670.625","3_Stimuli/T_ambi40.png","自我","Word","自我","Match","j","true","Formal"
"","","","","","psychophysics","273","1110346","0.0-9.0-0.0-0.62","1023","","j","","","","","","","","","","","","","key","j","24.790804597701683","1200","670.625","3_Stimuli/T_ambi40.png","自我","Image","自我","Match","j","true","Formal"
"","","","","","psychophysics","274","1112340","0.0-9.0-0.0-0.63","833","","f","","","","","","","","","","","","","key","f","23.128571428571984","1200","670.625","3_Stimuli/S_ambi40.png","他人","Image","朋友","Mismatch","f","true","Formal"
"","","","","","psychophysics","275","1114531","0.0-9.0-0.0-0.64","1035","","f","","","","","","","","","","","","","key","f","23.174565217391912","1200","670.625","3_Stimuli/T_ambi40.png","他人","Image","自我","Mismatch","f","true","Formal"
"","","","","","psychophysics","276","1116443","0.0-9.0-0.0-0.65","759","","j","","","","","","","","","","","","","key","j","23.27456790123445","1200","670.625","3_Stimuli/S_ambi40.png","朋友","Word","朋友","Match","j","true","Formal"
"","","","","","psychophysics","277","1118361","0.0-9.0-0.0-0.66","747","","f","","","","","","","","","","","","","key","f","23.25086419753167","1200","670.625","3_Stimuli/S_ambi40.png","自我","Image","朋友","Mismatch","f","true","Formal"
"","","","","","psychophysics","278","1120599","0.0-9.0-0.0-0.67","1070","","j","","","","","","","","","","","","","key","j","24.571333333335094","1200","670.625","3_Stimuli/C_ambi40.png","他人","Image","他人","Match","j","true","Formal"
"","","","","","psychophysics","279","1122511","0.0-9.0-0.0-0.68","743","","j","","","","","","","","","","","","","key","j","23.499749999999768","1200","670.625","3_Stimuli/T_ambi40.png","自我","Image","自我","Match","j","true","Formal"
"","","","","","psychophysics","280","1124396","0.0-9.0-0.0-0.69","724","","f","","","","","","","","","","","","","key","f","24.955675675675298","1200","670.625","3_Stimuli/T_ambi40.png","朋友","Image","自我","Mismatch","f","true","Formal"
"","","","","","psychophysics","281","1126548","0.0-9.0-0.0-0.70","996","","j","","","","","","","","","","","","","key","j","22.820434782608494","1200","670.625","3_Stimuli/C_ambi40.png","他人","Word","他人","Match","j","true","Formal"
"","","","","","psychophysics","282","1128349","0.0-9.0-0.0-0.71","635","","j","","","","","","","","","","","","","key","j","24.73277777777791","1200","670.625","3_Stimuli/S_ambi40.png","朋友","Image","朋友","Match","j","true","Formal"
"","","","","","psychophysics","283","1130155","0.0-9.0-0.0-0.72","647","","f","","","","","","","","","","","","","key","f","23.022105263157037","1200","670.625","3_Stimuli/C_ambi40.png","朋友","Word","他人","Mismatch","f","true","Formal"
"","","","","","psychophysics","284","1131940","0.0-9.0-0.0-0.73","525","","j","","","","","","","","","","","","","key","j","25.02857142857143","1200","670.625","3_Stimuli/S_ambi40.png","朋友","Word","朋友","Match","j","true","Formal"
"","","","","","psychophysics","285","1133694","0.0-9.0-0.0-0.74","596","","j","","","","","","","","","","","","","key","j","21.945316455698325","1200","670.625","3_Stimuli/S_ambi40.png","朋友","Image","朋友","Match","j","true","Formal"
"","","","","","psychophysics","286","1135581","0.0-9.0-0.0-0.75","731","","f","","","","","","","","","","","","","key","f","24.476578947368054","1200","670.625","3_Stimuli/S_ambi40.png","他人","Image","朋友","Mismatch","f","true","Formal"
"","","","","","psychophysics","287","1137657","0.0-9.0-0.0-0.76","910","","j","","","","","","","","","","","","","key","j","23.706976744186587","1200","670.625","3_Stimuli/C_ambi40.png","他人","Word","他人","Match","j","true","Formal"
"","","","","","psychophysics","288","1140060","0.0-9.0-0.0-0.77","1245","","f","","","","","","","","","","","","","key","f","23.164158415842323","1200","670.625","3_Stimuli/S_ambi40.png","他人","Word","朋友","Mismatch","f","true","Formal"
"","","","","","psychophysics","289","1142016","0.0-9.0-0.0-0.78","799","","f","","","","","","","","","","","","","key","f","24.481772151899442","1200","670.625","3_Stimuli/S_ambi40.png","自我","Word","朋友","Mismatch","f","true","Formal"
"","","","","","psychophysics","290","1143916","0.0-9.0-0.0-0.79","735","","j","","","","","","","","","","","","","key","j","24.54315789473721","1200","670.625","3_Stimuli/C_ambi40.png","他人","Word","他人","Match","j","true","Formal"
"","","","","","psychophysics","291","1146022","0.0-9.0-0.0-0.80","950","","f","","","","","","","","","","","","","key","f","23.85954022988538","1200","670.625","3_Stimuli/C_ambi40.png","他人","Image","他人","Match","j","false","Formal"
"","","","","","psychophysics","292","1147601","0.0-9.0-0.0-0.81","426","","j","","","","","","","","","","","","","key","j","23.29492537313447","1200","670.625","3_Stimuli/T_ambi40.png","自我","Image","自我","Match","j","true","Formal"
"","","","","","psychophysics","293","1149750","0.0-9.0-0.0-0.82","987","","j","","","","","","","","","","","","","key","j","24.97976190476246","1200","670.625","3_Stimuli/S_ambi40.png","朋友","Image","朋友","Match","j","true","Formal"
"","","","","","psychophysics","294","1151530","0.0-9.0-0.0-0.83","616","","f","","","","","","","","","","","","","key","f","22.768421052633418","1200","670.625","3_Stimuli/S_ambi40.png","自我","Image","朋友","Mismatch","f","true","Formal"
"","","","","","psychophysics","295","1153740","0.0-9.0-0.0-0.84","1045","","f","","","","","","","","","","","","","key","f","25.25837209302293","1200","670.625","3_Stimuli/C_ambi40.png","自我","Image","他人","Mismatch","f","true","Formal"
"","","","","","psychophysics","296","1155685","0.0-9.0-0.0-0.85","783","","j","","","","","","","","","","","","","key","j","22.917857142858253","1200","670.625","3_Stimuli/C_ambi40.png","他人","Image","他人","Match","j","true","Formal"
"","","","","","psychophysics","297","1157657","0.0-9.0-0.0-0.86","808","","f","","","","","","","","","","","","","key","f","23.5307317073173","1200","670.625","3_Stimuli/T_ambi40.png","朋友","Word","自我","Mismatch","f","true","Formal"
"","","","","","psychophysics","298","1159634","0.0-9.0-0.0-0.87","806","","j","","","","","","","","","","","","","key","j","25.683684210525826","1200","670.625","3_Stimuli/S_ambi40.png","朋友","Word","朋友","Match","j","true","Formal"
"","","","","","psychophysics","299","1161953","0.0-9.0-0.0-0.88","1100","","f","","","","","","","","","","","","","key","f","23.599587628865116","1200","670.625","3_Stimuli/C_ambi40.png","自我","Word","他人","Mismatch","f","true","Formal"
"","","","","","psychophysics","300","1164738","0.0-9.0-0.0-0.89","null","","null","","","","","","","","","","","","","key","null","24.932545454546133","1200","670.625","3_Stimuli/C_ambi40.png","朋友","Image","他人","Mismatch","f","false","Formal"
"","","","","","psychophysics","301","1167045","0.0-9.0-0.0-0.90","1124","","j","","","","","","","","","","","","","key","j","22.701616161615785","1200","670.625","3_Stimuli/T_ambi40.png","自我","Word","自我","Match","j","true","Formal"
"","","","","","psychophysics","302","1169079","0.0-9.0-0.0-0.91","868","","f","","","","","","","","","","","","","key","f","24.608048780489053","1200","670.625","3_Stimuli/T_ambi40.png","他人","Word","自我","Mismatch","f","true","Formal"
"","","","","","psychophysics","303","1171058","0.0-9.0-0.0-0.92","820","","j","","","","","","","","","","","","","key","j","25.447631578947615","1200","670.625","3_Stimuli/T_ambi40.png","自我","Image","自我","Match","j","true","Formal"
"","","","","","psychophysics","304","1172899","0.0-9.0-0.0-0.93","685","","f","","","","","","","","","","","","","key","f","24.32773333333122","1200","670.625","3_Stimuli/T_ambi40.png","他人","Image","自我","Mismatch","f","true","Formal"
"","","","","","psychophysics","305","1175462","0.0-9.0-0.0-0.94","1400","","f","","","","","","","","","","","","","key","f","24.899215686274236","1200","670.625","3_Stimuli/T_ambi40.png","朋友","Image","自我","Mismatch","f","true","Formal"
"","","","","","psychophysics","306","1177170","0.0-9.0-0.0-0.95","548","","j","","","","","","","","","","","","","key","j","23.133611111112664","1200","670.625","3_Stimuli/T_ambi40.png","自我","Word","自我","Match","j","true","Formal"
"","","","","","psychophysics","307","1179421","0.0-9.0-0.0-0.96","1087","","j","","","","","","","","","","","","","key","j","23.522947368420365","1200","670.625","3_Stimuli/C_ambi40.png","他人","Word","他人","Match","j","true","Formal"
"","","","","","psychophysics","308","1181158","0.0-9.0-0.0-0.97","573","","j","","","","","","","","","","","","","key","j","23.01413333333408","1200","670.625","3_Stimuli/S_ambi40.png","朋友","Word","朋友","Match","j","true","Formal"
"","","","","","psychophysics","309","1183163","0.0-9.0-0.0-0.98","782","","f","","","","","","","","","","","","","key","f","24.69367088607359","1200","670.625","3_Stimuli/T_ambi40.png","他人","Word","自我","Mismatch","f","true","Formal"
"","","","","","psychophysics","310","1185575","0.0-9.0-0.0-0.99","1237","","f","","","","","","","","","","","","","key","f","22.61019230769195","1200","670.625","3_Stimuli/T_ambi40.png","朋友","Image","自我","Mismatch","f","true","Formal"
"","","","","","psychophysics","311","1187514","0.0-9.0-0.0-0.100","778","","j","","","","","","","","","","","","","key","j","25.82270270270434","1200","670.625","3_Stimuli/S_ambi40.png","朋友","Image","朋友","Match","j","true","Formal"
"","","","","","psychophysics","312","1189065","0.0-9.0-0.0-0.101","391","","j","","","","","","","","","","","","","key","j","23.804062499999418","1200","670.625","3_Stimuli/T_ambi40.png","自我","Word","自我","Match","j","true","Formal"
"","","","","","psychophysics","313","1190971","0.0-9.0-0.0-0.102","743","","f","","","","","","","","","","","","","key","f","24.670263157894002","1200","670.625","3_Stimuli/T_ambi40.png","他人","Image","自我","Mismatch","f","true","Formal"
"","","","","","psychophysics","314","1192800","0.0-9.0-0.0-0.103","667","","j","","","","","","","","","","","","","key","j","24.03706666666704","1200","670.625","3_Stimuli/T_ambi40.png","自我","Image","自我","Match","j","true","Formal"
"","","","","","psychophysics","315","1195201","0.0-9.0-0.0-0.104","1242","","j","","","","","","","","","","","","","key","j","23.864848484849613","1200","670.625","3_Stimuli/C_ambi40.png","他人","Image","他人","Match","j","true","Formal"
"","","","","","psychophysics","316","1197472","0.0-9.0-0.0-0.105","1117","","f","","","","","","","","","","","","","key","f","23.02163265305999","1200","670.625","3_Stimuli/C_ambi40.png","自我","Word","他人","Mismatch","f","true","Formal"
"","","","","","psychophysics","317","1199711","0.0-9.0-0.0-0.106","1066","","f","","","","","","","","","","","","","key","f","22.283877551021074","1200","670.625","3_Stimuli/S_ambi40.png","自我","Word","朋友","Mismatch","f","true","Formal"
"","","","","","psychophysics","318","1201952","0.0-9.0-0.0-0.107","1081","","j","","","","","","","","","","","","","key","j","24.15758241758334","1200","670.625","3_Stimuli/C_ambi40.png","他人","Word","他人","Match","j","true","Formal"
"","","","","","psychophysics","319","1204066","0.0-9.0-0.0-0.108","953","","f","","","","","","","","","","","","","key","f","24.15883720930135","1200","670.625","3_Stimuli/S_ambi40.png","他人","Image","朋友","Mismatch","f","true","Formal"
"","","","","","psychophysics","320","1205944","0.0-9.0-0.0-0.109","715","","j","","","","","","","","","","","","","key","j","23.69615384615444","1200","670.625","3_Stimuli/C_ambi40.png","朋友","Image","他人","Mismatch","f","false","Formal"
"","","","","","psychophysics","321","1208333","0.0-9.0-0.0-0.110","1230","","j","","","","","","","","","","","","","key","j","22.82330097087424","1200","670.625","3_Stimuli/T_ambi40.png","朋友","Word","自我","Mismatch","f","false","Formal"
"","","","","","psychophysics","322","1210283","0.0-9.0-0.0-0.111","781","","f","","","","","","","","","","","","","key","f","25.09766233766258","1200","670.625","3_Stimuli/C_ambi40.png","朋友","Word","他人","Mismatch","f","true","Formal"
"","","","","","psychophysics","323","1212699","0.0-9.0-0.0-0.112","1257","","f","","","","","","","","","","","","","key","f","22.300934579438817","1200","670.625","3_Stimuli/S_ambi40.png","自我","Image","朋友","Mismatch","f","true","Formal"
"","","","","","psychophysics","324","1214670","0.0-9.0-0.0-0.113","796","","j","","","","","","","","","","","","","key","j","24.258999999999652","1200","670.625","3_Stimuli/S_ambi40.png","朋友","Image","朋友","Match","j","true","Formal"
"","","","","","psychophysics","325","1216474","0.0-9.0-0.0-0.114","559","","j","","","","","","","","","","","","","key","j","23.254545454546665","1200","670.625","3_Stimuli/T_ambi40.png","自我","Word","自我","Match","j","true","Formal"
"","","","","","psychophysics","326","1219044","0.0-9.0-0.0-0.115","1408","","f","","","","","","","","","","","","","key","f","22.1031304347835","1200","670.625","3_Stimuli/C_ambi40.png","自我","Image","他人","Mismatch","f","true","Formal"
"","","","","","psychophysics","327","1221125","0.0-9.0-0.0-0.116","922","","j","","","","","","","","","","","","","key","j","23.27499999999947","1200","670.625","3_Stimuli/T_ambi40.png","自我","Image","自我","Match","j","true","Formal"
"","","","","","psychophysics","328","1223177","0.0-9.0-0.0-0.117","895","","f","","","","","","","","","","","","","key","f","24.761707317072716","1200","670.625","3_Stimuli/C_ambi40.png","他人","Image","他人","Match","j","false","Formal"
"","","","","","psychophysics","329","1225188","0.0-9.0-0.0-0.118","839","","j","","","","","","","","","","","","","key","j","24.34839506172805","1200","670.625","3_Stimuli/S_ambi40.png","朋友","Word","朋友","Match","j","true","Formal"
"","","","","","psychophysics","330","1227086","0.0-9.0-0.0-0.119","738","","j","","","","","","","","","","","","","key","j","24.98945945945908","1200","670.625","3_Stimuli/S_ambi40.png","他人","Word","朋友","Mismatch","f","false","Formal"
"","","","","","html-keyboard-response","331","1235029","0.0-9.0-1.0","7941","<style>.context{color:white; font-size: 35px; line-height:40px}</style>                        <div><p class='context'>您正确回答了86% 的试次。</p><p class='context'>您的平均反应时为882毫秒。</p><p> <div style = 'color: green'><按任意键进入休息></div></p>"," ","","","","","","","","","","","","","","","","","","","","","","","","",""
"","","","","","html-button-response","332","1288547","0.0-9.0-2.0","53516","
                  <p>您当前还剩余5组实验</p>
                  <p>现在是休息时间，当您结束休息后，您可以点击 结束休息 按钮 继续</p>
                  <p>建议休息时间还剩余<span id=""iii"">60</span>秒</p>","0","","","","","","","","","","","","","","","","","","","","","","","","",""
"","","","","","psychophysics","333","1290453","0.0-9.0-0.1-0.120","740","","j","","","","","","","","","","","","","key","j","22.24517647058922","1200","670.625","3_Stimuli/S_ambi40.png","他人","Image","朋友","Mismatch","f","false","Formal"
"","","","","","psychophysics","334","1292100","0.0-9.0-0.1-0.121","497","","j","","","","","","","","","","","","","key","j","25.13812500000131","1200","670.625","3_Stimuli/S_ambi40.png","朋友","Word","朋友","Match","j","true","Formal"
"","","","","","psychophysics","335","1294828","0.0-9.0-0.1-0.122","null","","null","","","","","","","","","","","","","key","null","24.96923076922898","1200","670.625","3_Stimuli/T_ambi40.png","他人","Word","自我","Mismatch","f","false","Formal"
"","","","","","psychophysics","336","1296555","0.0-9.0-0.1-0.123","571","","j","","","","","","","","","","","","","key","j","23.596619718311302","1200","670.625","3_Stimuli/T_ambi40.png","自我","Word","自我","Match","j","true","Formal"
"","","","","","psychophysics","337","1298472","0.0-9.0-0.1-0.124","747","","f","","","","","","","","","","","","","key","f","24.573246753245424","1200","670.625","3_Stimuli/C_ambi40.png","自我","Word","他人","Mismatch","f","true","Formal"
"","","","","","psychophysics","338","1300584","0.0-9.0-0.1-0.125","819","","j","","","","","","","","","","","","","key","j","24.26941176470479","1200","670.625","3_Stimuli/T_ambi40.png","自我","Image","自我","Match","j","true","Formal"
"","","","","","psychophysics","339","1302708","0.0-9.0-0.1-0.126","955","","f","","","","","","","","","","","","","key","f","25.420963855421014","1200","670.625","3_Stimuli/T_ambi40.png","朋友","Image","自我","Mismatch","f","true","Formal"
"","","","","","psychophysics","340","1304528","0.0-9.0-0.1-0.127","659","","f","","","","","","","","","","","","","key","f","24.431232876712073","1200","670.625","3_Stimuli/C_ambi40.png","他人","Word","他人","Match","j","false","Formal"
"","","","","","psychophysics","341","1306932","0.0-9.0-0.1-0.128","1245","","f","","","","","","","","","","","","","key","f","24.36350515463927","1200","670.625","3_Stimuli/S_ambi40.png","自我","Word","朋友","Mismatch","f","true","Formal"
"","","","","","psychophysics","342","1308926","0.0-9.0-0.1-0.129","824","","j","","","","","","","","","","","","","key","j","24.610750000001282","1200","670.625","3_Stimuli/S_ambi40.png","朋友","Image","朋友","Match","j","true","Formal"
"","","","","","psychophysics","343","1311043","0.0-9.0-0.1-0.130","955","","f","","","","","","","","","","","","","key","f","23.46590909090909","1200","670.625","3_Stimuli/C_ambi40.png","自我","Image","他人","Mismatch","f","true","Formal"
"","","","","","psychophysics","344","1313033","0.0-9.0-0.1-0.131","828","","j","","","","","","","","","","","","","key","j","23.95707317073148","1200","670.625","3_Stimuli/S_ambi40.png","朋友","Word","朋友","Match","j","true","Formal"
"","","","","","psychophysics","345","1314964","0.0-9.0-0.1-0.132","766","","j","","","","","","","","","","","","","key","j","22.14627906976831","1200","670.625","3_Stimuli/C_ambi40.png","他人","Word","他人","Match","j","true","Formal"
"","","","","","psychophysics","346","1317205","0.0-9.0-0.1-0.133","1081","","f","","","","","","","","","","","","","key","f","24.00978260869464","1200","670.625","3_Stimuli/C_ambi40.png","朋友","Word","他人","Mismatch","f","true","Formal"
"","","","","","psychophysics","347","1319076","0.0-9.0-0.1-0.134","712","","j","","","","","","","","","","","","","key","j","23.928311688311446","1200","670.625","3_Stimuli/S_ambi40.png","朋友","Image","朋友","Match","j","true","Formal"
"","","","","","psychophysics","348","1321521","0.0-9.0-0.1-0.135","1282","","j","","","","","","","","","","","","","key","j","23.934000000001397","1200","670.625","3_Stimuli/C_ambi40.png","他人","Image","他人","Match","j","true","Formal"
"","","","","","psychophysics","349","1323551","0.0-9.0-0.1-0.136","858","","f","","","","","","","","","","","","","key","f","23.423255813952405","1200","670.625","3_Stimuli/T_ambi40.png","朋友","Word","自我","Mismatch","f","true","Formal"
"","","","","","psychophysics","350","1326305","0.0-9.0-0.1-0.137","null","","null","","","","","","","","","","","","","key","null","24.277876106193865","1200","670.625","3_Stimuli/S_ambi40.png","他人","Word","朋友","Mismatch","f","false","Formal"
"","","","","","psychophysics","351","1328511","0.0-9.0-0.1-0.138","1047","","f","","","","","","","","","","","","","key","f","24.344666666666875","1200","670.625","3_Stimuli/T_ambi40.png","他人","Image","自我","Mismatch","f","true","Formal"
"","","","","","psychophysics","352","1330637","0.0-9.0-0.1-0.139","957","","f","","","","","","","","","","","","","key","f","23.977500000000212","1200","670.625","3_Stimuli/C_ambi40.png","朋友","Image","他人","Mismatch","f","true","Formal"
"","","","","","psychophysics","353","1333151","0.0-9.0-0.1-0.140","1344","","f","","","","","","","","","","","","","key","f","22.720550458715937","1200","670.625","3_Stimuli/C_ambi40.png","他人","Image","他人","Match","j","false","Formal"
"","","","","","psychophysics","354","1335125","0.0-9.0-0.1-0.141","722","","j","","","","","","","","","","","","","key","j","24.774615384614428","1200","670.625","3_Stimuli/T_ambi40.png","自我","Image","自我","Match","j","true","Formal"
"","","","","","psychophysics","355","1336908","0.0-9.0-0.1-0.142","489","","j","","","","","","","","","","","","","key","j","23.152368421053612","1200","670.625","3_Stimuli/T_ambi40.png","自我","Word","自我","Match","j","true","Formal"
"","","","","","psychophysics","356","1339627","0.0-9.0-0.1-0.143","null","","null","","","","","","","","","","","","","key","null","23.839292035396912","1200","670.625","3_Stimuli/S_ambi40.png","自我","Image","朋友","Mismatch","f","false","Formal"
"","","","","","psychophysics","357","1341939","0.0-9.0-0.1-0.144","1156","","f","","","","","","","","","","","","","key","f","22.673861386139166","1200","670.625","3_Stimuli/C_ambi40.png","自我","Image","他人","Mismatch","f","true","Formal"
"","","","","","psychophysics","358","1343976","0.0-9.0-0.1-0.145","875","","f","","","","","","","","","","","","","key","f","23.63476190476268","1200","670.625","3_Stimuli/T_ambi40.png","他人","Word","自我","Mismatch","f","true","Formal"
"","","","","","psychophysics","359","1346432","0.0-9.0-0.1-0.146","1295","","f","","","","","","","","","","","","","key","f","23.58155339805735","1200","670.625","3_Stimuli/C_ambi40.png","朋友","Word","他人","Mismatch","f","true","Formal"
"","","","","","psychophysics","360","1348429","0.0-9.0-0.1-0.147","838","","j","","","","","","","","","","","","","key","j","23.54722891566175","1200","670.625","3_Stimuli/C_ambi40.png","他人","Image","他人","Match","j","true","Formal"
"","","","","","psychophysics","361","1350098","0.0-9.0-0.1-0.148","499","","j","","","","","","","","","","","","","key","j","22.786388888887206","1200","670.625","3_Stimuli/C_ambi40.png","他人","Image","他人","Match","j","true","Formal"
"","","","","","psychophysics","362","1351956","0.0-9.0-0.1-0.149","706","","f","","","","","","","","","","","","","key","f","23.03300000000163","1200","670.625","3_Stimuli/C_ambi40.png","自我","Word","他人","Mismatch","f","true","Formal"
"","","","","","psychophysics","363","1354191","0.0-9.0-0.1-0.150","1079","","f","","","","","","","","","","","","","key","f","23.154791666665307","1200","670.625","3_Stimuli/S_ambi40.png","他人","Word","朋友","Mismatch","f","true","Formal"
"","","","","","psychophysics","364","1356071","0.0-9.0-0.1-0.151","719","","j","","","","","","","","","","","","","key","j","23.84467532467581","1200","670.625","3_Stimuli/C_ambi40.png","他人","Word","他人","Match","j","true","Formal"
"","","","","","psychophysics","365","1357927","0.0-9.0-0.1-0.152","689","","j","","","","","","","","","","","","","key","j","24.427733333331222","1200","670.625","3_Stimuli/S_ambi40.png","朋友","Image","朋友","Match","j","true","Formal"
"","","","","","psychophysics","366","1359859","0.0-9.0-0.1-0.153","770","","f","","","","","","","","","","","","","key","f","24.421558441560983","1200","670.625","3_Stimuli/S_ambi40.png","自我","Word","朋友","Mismatch","f","true","Formal"
"","","","","","psychophysics","367","1361891","0.0-9.0-0.1-0.154","873","","j","","","","","","","","","","","","","key","j","24.39308641975412","1200","670.625","3_Stimuli/S_ambi40.png","朋友","Word","朋友","Match","j","true","Formal"
"","","","","","psychophysics","368","1363786","0.0-9.0-0.1-0.155","733","","f","","","","","","","","","","","","","key","f","21.32340909090867","1200","670.625","3_Stimuli/T_ambi40.png","朋友","Word","自我","Mismatch","f","true","Formal"
"","","","","","psychophysics","369","1365933","0.0-9.0-0.1-0.156","990","","f","","","","","","","","","","","","","key","f","23.781797752809826","1200","670.625","3_Stimuli/T_ambi40.png","他人","Image","自我","Mismatch","f","true","Formal"
"","","","","","psychophysics","370","1368117","0.0-9.0-0.1-0.157","1027","","f","","","","","","","","","","","","","key","f","24.67770114942486","1200","670.625","3_Stimuli/C_ambi40.png","朋友","Image","他人","Mismatch","f","true","Formal"
"","","","","","psychophysics","371","1370353","0.0-9.0-0.1-0.158","1070","","f","","","","","","","","","","","","","key","f","23.840434782609403","1200","670.625","3_Stimuli/S_ambi40.png","自我","Image","朋友","Mismatch","f","true","Formal"
"","","","","","psychophysics","372","1372418","0.0-9.0-0.1-0.159","905","","j","","","","","","","","","","","","","key","j","24.449397590362008","1200","670.625","3_Stimuli/S_ambi40.png","他人","Image","朋友","Mismatch","f","false","Formal"
"","","","","","psychophysics","373","1374484","0.0-9.0-0.1-0.160","904","","j","","","","","","","","","","","","","key","j","22.6849438202243","1200","670.625","3_Stimuli/T_ambi40.png","自我","Image","自我","Match","j","true","Formal"
"","","","","","psychophysics","374","1376264","0.0-9.0-0.1-0.161","625","","j","","","","","","","","","","","","","key","j","23.344533333331345","1200","670.625","3_Stimuli/T_ambi40.png","自我","Word","自我","Match","j","true","Formal"
"","","","","","psychophysics","375","1378098","0.0-9.0-0.1-0.162","672","","j","","","","","","","","","","","","","key","j","24.227200000000497","1200","670.625","3_Stimuli/T_ambi40.png","自我","Word","自我","Match","j","true","Formal"
"","","","","","psychophysics","376","1380001","0.0-9.0-0.1-0.163","738","","j","","","","","","","","","","","","","key","j","23.807594936706504","1200","670.625","3_Stimuli/S_ambi40.png","朋友","Word","朋友","Match","j","true","Formal"
"","","","","","psychophysics","377","1382330","0.0-9.0-0.1-0.164","1062","","f","","","","","","","","","","","","","key","f","24.74978260869545","1200","670.625","3_Stimuli/T_ambi40.png","朋友","Image","自我","Mismatch","f","true","Formal"
"","","","","","psychophysics","378","1384237","0.0-9.0-0.1-0.165","743","","j","","","","","","","","","","","","","key","j","24.9909333333342","1200","670.625","3_Stimuli/S_ambi40.png","朋友","Image","朋友","Match","j","true","Formal"
"","","","","","psychophysics","379","1386361","0.0-9.0-0.1-0.166","962","","j","","","","","","","","","","","","","key","j","24.838571428570763","1200","670.625","3_Stimuli/C_ambi40.png","他人","Word","他人","Match","j","true","Formal"
"","","","","","psychophysics","380","1388077","0.0-9.0-0.1-0.167","550","","j","","","","","","","","","","","","","key","j","23.010410958904238","1200","670.625","3_Stimuli/T_ambi40.png","自我","Image","自我","Match","j","true","Formal"
"","","","","","psychophysics","381","1390489","0.0-9.0-0.1-0.168","1160","","f","","","","","","","","","","","","","key","f","23.042307692309034","1200","670.625","3_Stimuli/C_ambi40.png","自我","Image","他人","Mismatch","f","true","Formal"
"","","","","","psychophysics","382","1392460","0.0-9.0-0.1-0.169","805","","f","","","","","","","","","","","","","key","f","25.404736842105386","1200","670.625","3_Stimuli/C_ambi40.png","他人","Word","他人","Match","j","false","Formal"
"","","","","","psychophysics","383","1394145","0.0-9.0-0.1-0.170","473","","j","","","","","","","","","","","","","key","j","24.465294117645552","1200","670.625","3_Stimuli/S_ambi40.png","朋友","Word","朋友","Match","j","true","Formal"
"","","","","","psychophysics","384","1395940","0.0-9.0-0.1-0.171","637","","j","","","","","","","","","","","","","key","j","23.531200000001117","1200","670.625","3_Stimuli/S_ambi40.png","朋友","Image","朋友","Match","j","true","Formal"
"","","","","","psychophysics","385","1397866","0.0-9.0-0.1-0.172","769","","f","","","","","","","","","","","","","key","f","23.1545679012348","1200","670.625","3_Stimuli/T_ambi40.png","他人","Word","自我","Mismatch","f","true","Formal"
"","","","","","psychophysics","386","1400091","0.0-9.0-0.1-0.173","1059","","j","","","","","","","","","","","","","key","j","25.826666666666","1200","670.625","3_Stimuli/C_ambi40.png","朋友","Image","他人","Mismatch","f","false","Formal"
"","","","","","psychophysics","387","1402809","0.0-9.0-0.1-0.174","null","","null","","","","","","","","","","","","","key","null","24.31783783783809","1200","670.625","3_Stimuli/T_ambi40.png","自我","Word","自我","Match","j","false","Formal"
"","","","","","psychophysics","388","1404662","0.0-9.0-0.1-0.175","693","","j","","","","","","","","","","","","","key","j","22.808749999999417","1200","670.625","3_Stimuli/T_ambi40.png","自我","Image","自我","Match","j","true","Formal"
"","","","","","psychophysics","389","1407135","0.0-9.0-0.1-0.176","1285","","j","","","","","","","","","","","","","key","j","23.929607843137894","1200","670.625","3_Stimuli/C_ambi40.png","他人","Image","他人","Match","j","true","Formal"
"","","","","","psychophysics","390","1409200","0.0-9.0-0.1-0.177","902","","f","","","","","","","","","","","","","key","f","23.17977272727347","1200","670.625","3_Stimuli/S_ambi40.png","他人","Word","朋友","Mismatch","f","true","Formal"
"","","","","","psychophysics","391","1411069","0.0-9.0-0.1-0.178","701","","j","","","","","","","","","","","","","key","j","23.91740259740429","1200","670.625","3_Stimuli/S_ambi40.png","朋友","Image","朋友","Match","j","true","Formal"
"","","","","","psychophysics","392","1413947","0.0-9.0-0.1-0.179","null","","null","","","","","","","","","","","","","key","null","25.477678571428573","1200","670.625","3_Stimuli/T_ambi40.png","朋友","Word","自我","Mismatch","f","false","Formal"
"","","","","","psychophysics","393","1416166","0.0-9.0-0.1-0.180","1049","","f","","","","","","","","","","","","","key","f","22.861041666668218","1200","670.625","3_Stimuli/C_ambi40.png","朋友","Word","他人","Mismatch","f","true","Formal"
"","","","","","psychophysics","394","1418125","0.0-9.0-0.1-0.181","799","","j","","","","","","","","","","","","","key","j","24.091749999998136","1200","670.625","3_Stimuli/C_ambi40.png","他人","Image","他人","Match","j","true","Formal"
"","","","","","psychophysics","395","1420060","0.0-9.0-0.1-0.182","774","","f","","","","","","","","","","","","","key","f","23.262716049383062","1200","670.625","3_Stimuli/T_ambi40.png","他人","Image","自我","Mismatch","f","true","Formal"
"","","","","","psychophysics","396","1422133","0.0-9.0-0.1-0.183","915","","f","","","","","","","","","","","","","key","f","23.708139534882637","1200","670.625","3_Stimuli/C_ambi40.png","自我","Word","他人","Mismatch","f","true","Formal"
"","","","","","psychophysics","397","1424847","0.0-9.0-0.1-0.184","null","","null","","","","","","","","","","","","","key","null","23.631754385965074","1200","670.625","3_Stimuli/S_ambi40.png","自我","Word","朋友","Mismatch","f","false","Formal"
"","","","","","psychophysics","398","1427000","0.0-9.0-0.1-0.185","870","","f","","","","","","","","","","","","","key","f","23.908314606742515","1200","670.625","3_Stimuli/T_ambi40.png","朋友","Image","自我","Mismatch","f","true","Formal"
"","","","","","psychophysics","399","1428827","0.0-9.0-0.1-0.186","653","","j","","","","","","","","","","","","","key","j","23.826666666666668","1200","670.625","3_Stimuli/T_ambi40.png","自我","Word","自我","Match","j","true","Formal"
"","","","","","psychophysics","400","1430983","0.0-9.0-0.1-0.187","862","","f","","","","","","","","","","","","","key","f","23.44200000000031","1200","670.625","3_Stimuli/S_ambi40.png","自我","Image","朋友","Mismatch","f","true","Formal"
"","","","","","psychophysics","401","1433705","0.0-9.0-0.1-0.188","null","","null","","","","","","","","","","","","","key","null","23.729026548673637","1200","670.625","3_Stimuli/C_ambi40.png","他人","Word","他人","Match","j","false","Formal"
"","","","","","psychophysics","402","1436370","0.0-9.0-0.1-0.189","1509","","f","","","","","","","","","","","","","key","f","22.597094017092903","1200","670.625","3_Stimuli/S_ambi40.png","他人","Image","朋友","Mismatch","f","true","Formal"
"","","","","","psychophysics","403","1438442","0.0-9.0-0.1-0.190","889","","j","","","","","","","","","","","","","key","j","24.700243902438118","1200","670.625","3_Stimuli/S_ambi40.png","朋友","Word","朋友","Match","j","true","Formal"
"","","","","","psychophysics","404","1440294","0.0-9.0-0.1-0.191","685","","j","","","","","","","","","","","","","key","j","23.231898734178042","1200","670.625","3_Stimuli/T_ambi40.png","自我","Image","自我","Match","j","true","Formal"
"","","","","","psychophysics","405","1442552","0.0-9.0-0.1-0.192","1091","","j","","","","","","","","","","","","","key","j","23.146185567012036","1200","670.625","3_Stimuli/S_ambi40.png","朋友","Word","朋友","Match","j","true","Formal"
"","","","","","psychophysics","406","1444202","0.0-9.0-0.1-0.193","494","","j","","","","","","","","","","","","","key","j","23.483188405798316","1200","670.625","3_Stimuli/S_ambi40.png","朋友","Image","朋友","Match","j","true","Formal"
"","","","","","psychophysics","407","1445875","0.0-9.0-0.1-0.194","370","","j","","","","","","","","","","","","","key","j","22.920555555555943","1200","670.625","3_Stimuli/S_ambi40.png","朋友","Word","朋友","Match","j","true","Formal"
"","","","","","psychophysics","408","1447647","0.0-9.0-0.1-0.195","610","","f","","","","","","","","","","","","","key","f","24.46084507042542","1200","670.625","3_Stimuli/C_ambi40.png","朋友","Image","他人","Mismatch","f","true","Formal"
"","","","","","psychophysics","409","1449613","0.0-9.0-0.1-0.196","793","","f","","","","","","","","","","","","","key","f","24.617179487178174","1200","670.625","3_Stimuli/C_ambi40.png","自我","Image","他人","Mismatch","f","true","Formal"
"","","","","","psychophysics","410","1451331","0.0-9.0-0.1-0.197","567","","j","","","","","","","","","","","","","key","j","24.821176470589467","1200","670.625","3_Stimuli/T_ambi40.png","自我","Image","自我","Match","j","true","Formal"
"","","","","","psychophysics","411","1453283","0.0-9.0-0.1-0.198","799","","f","","","","","","","","","","","","","key","f","22.928809523809747","1200","670.625","3_Stimuli/C_ambi40.png","他人","Image","他人","Match","j","false","Formal"
"","","","","","psychophysics","412","1455032","0.0-9.0-0.1-0.199","436","","j","","","","","","","","","","","","","key","j","23.80805555555465","1200","670.625","3_Stimuli/T_ambi40.png","自我","Image","自我","Match","j","true","Formal"
"","","","","","psychophysics","413","1456736","0.0-9.0-0.1-0.200","542","","j","","","","","","","","","","","","","key","j","22.990136986301753","1200","670.625","3_Stimuli/T_ambi40.png","自我","Word","自我","Match","j","true","Formal"
"","","","","","psychophysics","414","1458976","0.0-9.0-0.1-0.201","1076","","f","","","","","","","","","","","","","key","f","23.795053763440258","1200","670.625","3_Stimuli/T_ambi40.png","他人","Word","自我","Mismatch","f","true","Formal"
"","","","","","psychophysics","415","1460635","0.0-9.0-0.1-0.202","496","","j","","","","","","","","","","","","","key","j","23.49217391304294","1200","670.625","3_Stimuli/T_ambi40.png","朋友","Image","自我","Mismatch","f","false","Formal"
"","","","","","psychophysics","416","1462667","0.0-9.0-0.1-0.203","864","","f","","","","","","","","","","","","","key","f","24.953000000002795","1200","670.625","3_Stimuli/C_ambi40.png","他人","Word","他人","Match","j","false","Formal"
"","","","","","psychophysics","417","1465393","0.0-9.0-0.1-0.204","null","","null","","","","","","","","","","","","","key","null","24.399818181818013","1200","670.625","3_Stimuli/T_ambi40.png","自我","Word","自我","Match","j","false","Formal"
