"success","timeout","failed_images","failed_audio","failed_video","trial_type","trial_index","time_elapsed","internal_node_id","rt","stimulus","response","value","item_width_mm","item_height_mm","item_width_px","px2mm","view_dist_mm","item_width_deg","px2deg","scale_factor","win_width_deg","win_height_deg","view_history","response_type","key_press","avg_frame_time","center_x","center_y","image","word","target","valence","matchness","correct_response","correct","exp_condition"
"true","false","[]","[]","[]","preload","0","697","0.0-0.0","","","","","","","","","","","","","","","","","","","","","","","","","","","",""
"","","","","","html-keyboard-response","1","5886","0.0-1.0","5188","
     <p>您好，欢迎参加本次实验。</p>
     <p>为充分保障您的权利，请确保您已经知晓并同意《参与实验同意书》以及《数据公开知情同意书》。</p>
     <p>如果您未见过上述内容，请咨询实验员。</p>
     <p>如果您选择继续实验，则表示您已经清楚两份知情同意书的内容并同意。</p>
     <p> <div style = ""color: green""><按任意键至下页></div> </p>
     ","enter","","","","","","","","","","","","","","","","","","","","","","","","",""
"","","","","","html-keyboard-response","2","7194","0.0-2.0-0.0","1308","
      <p>本实验首先需要您填写一些基本个人信息。</p>
      <p> <div style = ""color: green""><按任意键至下页></div></p>
      ","enter","","","","","","","","","","","","","","","","","","","","","","","","",""
"","","","","","call-function","3","7195","0.0-2.0-1.0","","","","","","","","","","","","","","","","","","","","","","","","","","","",""
"","","","","","survey-html-form","4","21956","0.0-2.0-2.0","14756","","{""Q0"":""1011""}","","","","","","","","","","","","","","","","","","","","","","","","",""
"","","","","","html-button-response","5","23236","0.0-2.0-3.0","1280","<p style = 'color : white'>您的性别</p>","0","","","","","","","","","","","","","","","","","","","","","","","","",""
"","","","","","survey-html-form","6","28770","0.0-2.0-4.0","5533","","{""Q0"":""2003""}","","","","","","","","","","","","","","","","","","","","","","","","",""
"","","","","","survey-html-form","7","34045","0.0-2.0-5.0","5274","","{""Q0"":""5""}","","","","","","","","","","","","","","","","","","","","","","","","",""
"","","","","","virtual-chinrest","8","158791","0.0-3.0","124745","","","","85.6","53.98","383.0015772887724","4.478647476360645","639.32","7.660031545775448","50","0.9712753734158188","29.76","15.1","","","","","","","","","","","","","",""
"true","","","","","fullscreen","9","171835","0.0-4.0","","","","","","","","","","","","","","","","","","","","","","","","","","","",""
"","","","","","instructions","10","274370","0.0-5.0","102533","","","","","","","","","","","","","","[{""page_index"":0,""viewing_time"":24390},{""page_index"":1,""viewing_time"":52194},{""page_index"":2,""viewing_time"":13743},{""page_index"":3,""viewing_time"":2403},{""page_index"":2,""viewing_time"":7720},{""page_index"":3,""viewing_time"":2083}]","","","","","","","","","","","","",""
"","","","","","html-keyboard-response","11","278022","0.0-6.0","null","<count-down title=""""></count-down>","null","","","","","","","","","","","","","","","","","","","","","","","","",""
"","","","","","psychophysics","12","280732","0.0-7.0-0.0-0.0","null","","null","","","","","","","","","","","","","key","null","16.666236024844512","768","428","./1_3_Stimuli/C_ambi40.png","朋友","Word","朋友","Match","j","false","Practice"
"","","","","","html-keyboard-response","13","281041","0.0-7.0-0.0-1.0","null","<span class='add_' style='color:yellow; font-size: 70px;'> 太慢! </span>","null","","","","","","","","","","","","","","","","","","","","","","","","","feedback"
"","","","","","psychophysics","14","283122","0.0-7.0-0.0-0.1","930","","f","","","","","","","","","","","","","key","f","16.666154471544523","768","428","./1_3_Stimuli/C_ambi40.png","自我","Word","朋友","Mismatch","f","true","Practice"
"","","","","","html-keyboard-response","15","283433","0.0-7.0-0.0-1.1","null","<span style='color:GreenYellow; font-size: 70px;'>正确! </span>","null","","","","","","","","","","","","","","","","","","","","","","","","","feedback"
"","","","","","psychophysics","16","285481","0.0-7.0-0.0-0.2","890","","f","","","","","","","","","","","","","key","f","16.666475409836046","768","428","./1_3_Stimuli/C_ambi40.png","朋友","Word","朋友","Match","j","false","Practice"
"","","","","","html-keyboard-response","17","285788","0.0-7.0-0.0-1.2","null","<span style='color:red; font-size: 70px;'>错误! </span>","null","","","","","","","","","","","","","","","","","","","","","","","","","feedback"
"","","","","","psychophysics","18","287697","0.0-7.0-0.0-0.3","756","","j","","","","","","","","","","","","","key","j","16.664929824561113","768","428","./1_3_Stimuli/C_ambi40.png","朋友","Image","朋友","Match","j","true","Practice"
"","","","","","html-keyboard-response","19","287998","0.0-7.0-0.0-1.3","null","<span style='color:GreenYellow; font-size: 70px;'>正确! </span>","null","","","","","","","","","","","","","","","","","","","","","","","","","feedback"
"","","","","","psychophysics","20","289649","0.0-7.0-0.0-0.4","493","","j","","","","","","","","","","","","","key","j","16.66790909090931","768","428","./1_3_Stimuli/C_ambi40.png","朋友","Image","朋友","Match","j","true","Practice"
"","","","","","html-keyboard-response","21","289961","0.0-7.0-0.0-1.4","null","<span style='color:GreenYellow; font-size: 70px;'>正确! </span>","null","","","","","","","","","","","","","","","","","","","","","","","","","feedback"
"","","","","","psychophysics","22","291853","0.0-7.0-0.0-0.5","736","","j","","","","","","","","","","","","","key","j","16.666758928571134","768","428","./1_3_Stimuli/T_ambi40.png","自我","Word","自我","Match","j","true","Practice"
"","","","","","html-keyboard-response","23","292165","0.0-7.0-0.0-1.5","null","<span style='color:GreenYellow; font-size: 70px;'>正确! </span>","null","","","","","","","","","","","","","","","","","","","","","","","","","feedback"
"","","","","","psychophysics","24","294053","0.0-7.0-0.0-0.6","733","","f","","","","","","","","","","","","","key","f","16.66647321428536","768","428","./1_3_Stimuli/S_ambi40.png","他人","Word","他人","Match","j","false","Practice"
"","","","","","html-keyboard-response","25","294368","0.0-7.0-0.0-1.6","null","<span style='color:red; font-size: 70px;'>错误! </span>","null","","","","","","","","","","","","","","","","","","","","","","","","","feedback"
"","","","","","psychophysics","26","296653","0.0-7.0-0.0-0.7","1130","","j","","","","","","","","","","","","","key","j","16.666051470588545","768","428","./1_3_Stimuli/T_ambi40.png","朋友","Image","自我","Mismatch","f","false","Practice"
"","","","","","html-keyboard-response","27","296961","0.0-7.0-0.0-1.7","null","<span style='color:red; font-size: 70px;'>错误! </span>","null","","","","","","","","","","","","","","","","","","","","","","","","","feedback"
"","","","","","psychophysics","28","299405","0.0-7.0-0.0-0.8","1286","","j","","","","","","","","","","","","","key","j","16.665331034482747","768","428","./1_3_Stimuli/S_ambi40.png","他人","Word","他人","Match","j","true","Practice"
"","","","","","html-keyboard-response","29","299710","0.0-7.0-0.0-1.8","null","<span style='color:GreenYellow; font-size: 70px;'>正确! </span>","null","","","","","","","","","","","","","","","","","","","","","","","","","feedback"
"","","","","","psychophysics","30","301858","0.0-7.0-0.0-0.9","991","","f","","","","","","","","","","","","","key","f","16.666249999999764","768","428","./1_3_Stimuli/T_ambi40.png","朋友","Word","自我","Mismatch","f","true","Practice"
"","","","","","html-keyboard-response","31","302166","0.0-7.0-0.0-1.9","null","<span style='color:GreenYellow; font-size: 70px;'>正确! </span>","null","","","","","","","","","","","","","","","","","","","","","","","","","feedback"
"","","","","","psychophysics","32","304506","0.0-7.0-0.0-0.10","1182","","f","","","","","","","","","","","","","key","f","16.666424460431877","768","428","./1_3_Stimuli/C_ambi40.png","他人","Word","朋友","Mismatch","f","true","Practice"
"","","","","","html-keyboard-response","33","304813","0.0-7.0-0.0-1.10","null","<span style='color:GreenYellow; font-size: 70px;'>正确! </span>","null","","","","","","","","","","","","","","","","","","","","","","","","","feedback"
"","","","","","psychophysics","34","307065","0.0-7.0-0.0-0.11","1098","","j","","","","","","","","","","","","","key","j","16.66685074626871","768","428","./1_3_Stimuli/S_ambi40.png","朋友","Image","他人","Mismatch","f","false","Practice"
"","","","","","html-keyboard-response","35","307372","0.0-7.0-0.0-1.11","null","<span style='color:red; font-size: 70px;'>错误! </span>","null","","","","","","","","","","","","","","","","","","","","","","","","","feedback"
"","","","","","psychophysics","36","309720","0.0-7.0-0.0-0.12","1197","","f","","","","","","","","","","","","","key","f","16.657503597122172","768","428","./1_3_Stimuli/T_ambi40.png","他人","Image","自我","Mismatch","f","true","Practice"
"","","","","","html-keyboard-response","37","310027","0.0-7.0-0.0-1.12","null","<span style='color:GreenYellow; font-size: 70px;'>正确! </span>","null","","","","","","","","","","","","","","","","","","","","","","","","","feedback"
"","","","","","psychophysics","38","312418","0.0-7.0-0.0-0.13","1230","","f","","","","","","","","","","","","","key","f","16.666598591548933","768","428","./1_3_Stimuli/S_ambi40.png","朋友","Word","他人","Mismatch","f","true","Practice"
"","","","","","html-keyboard-response","39","312732","0.0-7.0-0.0-1.13","null","<span style='color:GreenYellow; font-size: 70px;'>正确! </span>","null","","","","","","","","","","","","","","","","","","","","","","","","","feedback"
"","","","","","psychophysics","40","314702","0.0-7.0-0.0-0.14","812","","j","","","","","","","","","","","","","key","j","16.666846153845725","768","428","./1_3_Stimuli/S_ambi40.png","自我","Image","他人","Mismatch","f","false","Practice"
"","","","","","html-keyboard-response","41","315003","0.0-7.0-0.0-1.14","null","<span style='color:red; font-size: 70px;'>错误! </span>","null","","","","","","","","","","","","","","","","","","","","","","","","","feedback"
"","","","","","psychophysics","42","317401","0.0-7.0-0.0-0.15","1245","","j","","","","","","","","","","","","","key","j","16.666293706293903","768","428","./1_3_Stimuli/T_ambi40.png","自我","Word","自我","Match","j","true","Practice"
"","","","","","html-keyboard-response","43","317714","0.0-7.0-0.0-1.15","null","<span style='color:GreenYellow; font-size: 70px;'>正确! </span>","null","","","","","","","","","","","","","","","","","","","","","","","","","feedback"
"","","","","","psychophysics","44","319566","0.0-7.0-0.0-0.16","696","","f","","","","","","","","","","","","","key","f","16.66639090909104","768","428","./1_3_Stimuli/S_ambi40.png","自我","Word","他人","Mismatch","f","true","Practice"
"","","","","","html-keyboard-response","45","319878","0.0-7.0-0.0-1.16","null","<span style='color:GreenYellow; font-size: 70px;'>正确! </span>","null","","","","","","","","","","","","","","","","","","","","","","","","","feedback"
"","","","","","psychophysics","46","322250","0.0-7.0-0.0-0.17","1214","","f","","","","","","","","","","","","","key","f","16.666873239436594","768","428","./1_3_Stimuli/S_ambi40.png","他人","Image","他人","Match","j","false","Practice"
"","","","","","html-keyboard-response","47","322564","0.0-7.0-0.0-1.17","null","<span style='color:red; font-size: 70px;'>错误! </span>","null","","","","","","","","","","","","","","","","","","","","","","","","","feedback"
"","","","","","psychophysics","48","324846","0.0-7.0-0.0-0.18","1128","","f","","","","","","","","","","","","","key","f","16.66735294117654","768","428","./1_3_Stimuli/C_ambi40.png","自我","Image","朋友","Mismatch","f","true","Practice"
"","","","","","html-keyboard-response","49","325151","0.0-7.0-0.0-1.18","null","<span style='color:GreenYellow; font-size: 70px;'>正确! </span>","null","","","","","","","","","","","","","","","","","","","","","","","","","feedback"
"","","","","","psychophysics","50","327297","0.0-7.0-0.0-0.19","991","","f","","","","","","","","","","","","","key","f","16.666069767441936","768","428","./1_3_Stimuli/T_ambi40.png","他人","Word","自我","Mismatch","f","true","Practice"
"","","","","","html-keyboard-response","51","327613","0.0-7.0-0.0-1.19","null","<span style='color:GreenYellow; font-size: 70px;'>正确! </span>","null","","","","","","","","","","","","","","","","","","","","","","","","","feedback"
"","","","","","psychophysics","52","329681","0.0-7.0-0.0-0.20","908","","j","","","","","","","","","","","","","key","j","16.66658536585358","768","428","./1_3_Stimuli/S_ambi40.png","他人","Image","他人","Match","j","true","Practice"
"","","","","","html-keyboard-response","53","329982","0.0-7.0-0.0-1.20","null","<span style='color:GreenYellow; font-size: 70px;'>正确! </span>","null","","","","","","","","","","","","","","","","","","","","","","","","","feedback"
"","","","","","psychophysics","54","332445","0.0-7.0-0.0-0.21","1306","","j","","","","","","","","","","","","","key","j","16.66621088435387","768","428","./1_3_Stimuli/T_ambi40.png","自我","Image","自我","Match","j","true","Practice"
"","","","","","html-keyboard-response","55","332747","0.0-7.0-0.0-1.21","null","<span style='color:GreenYellow; font-size: 70px;'>正确! </span>","null","","","","","","","","","","","","","","","","","","","","","","","","","feedback"
"","","","","","psychophysics","56","334629","0.0-7.0-0.0-0.22","728","","j","","","","","","","","","","","","","key","j","16.667044642857427","768","428","./1_3_Stimuli/T_ambi40.png","自我","Image","自我","Match","j","true","Practice"
"","","","","","html-keyboard-response","57","334941","0.0-7.0-0.0-1.22","null","<span style='color:GreenYellow; font-size: 70px;'>正确! </span>","null","","","","","","","","","","","","","","","","","","","","","","","","","feedback"
"","","","","","psychophysics","58","337334","0.0-7.0-0.0-0.23","1236","","f","","","","","","","","","","","","","key","f","16.666521126760617","768","428","./1_3_Stimuli/C_ambi40.png","他人","Image","朋友","Mismatch","f","true","Practice"
"","","","","","html-keyboard-response","59","337646","0.0-7.0-0.0-1.23","null","<span style='color:GreenYellow; font-size: 70px;'>正确! </span>","null","","","","","","","","","","","","","","","","","","","","","","","","","feedback"
"","","","","","html-keyboard-response","60","340378","0.0-7.0-1.0-0.0","2731","<style>.context{color:white; font-size: 35px; line-height:40px}</style>                        <div><p class='context'>您正确回答了71% 的试次。</p><p class='context'>您的平均反应时为1002毫秒。</p><p> <div style = 'color: green'><按空格键至下页></div></p>"," ","","","","","","","","","","","","","","","","","","","","","","","","",""
"","","","","","instructions","61","357027","0.0-7.0-1.0-1.0","16648","","","","","","","","","","","","","","[{""page_index"":0,""viewing_time"":3244},{""page_index"":1,""viewing_time"":7059},{""page_index"":2,""viewing_time"":2290},{""page_index"":1,""viewing_time"":2787},{""page_index"":2,""viewing_time"":1268}]","","","","","","","","","","","","",""
"","","","","","psychophysics","62","359149","0.0-7.1-0.1-0.24","963","","j","","","","","","","","","","","","","key","j","16.666198412698808","768","428","./1_3_Stimuli/S_ambi40.png","他人","Image","他人","Match","j","true","Practice"
"","","","","","html-keyboard-response","63","359463","0.0-7.1-0.1-1.24","null","<span style='color:GreenYellow; font-size: 70px;'>正确! </span>","null","","","","","","","","","","","","","","","","","","","","","","","","","feedback"
"","","","","","psychophysics","64","361274","0.0-7.1-0.1-0.25","651","","j","","","","","","","","","","","","","key","j","16.6672222222222","768","428","./1_3_Stimuli/T_ambi40.png","自我","Word","自我","Match","j","true","Practice"
"","","","","","html-keyboard-response","65","361580","0.0-7.1-0.1-1.25","null","<span style='color:GreenYellow; font-size: 70px;'>正确! </span>","null","","","","","","","","","","","","","","","","","","","","","","","","","feedback"
"","","","","","psychophysics","66","363407","0.0-7.1-0.1-0.26","670","","j","","","","","","","","","","","","","key","j","16.667568807339578","768","428","./1_3_Stimuli/T_ambi40.png","自我","Word","自我","Match","j","true","Practice"
"","","","","","html-keyboard-response","67","363713","0.0-7.1-0.1-1.26","null","<span style='color:GreenYellow; font-size: 70px;'>正确! </span>","null","","","","","","","","","","","","","","","","","","","","","","","","","feedback"
"","","","","","psychophysics","68","365921","0.0-7.1-0.1-0.27","1048","","j","","","","","","","","","","","","","key","j","16.665938931297358","768","428","./1_3_Stimuli/S_ambi40.png","他人","Image","他人","Match","j","true","Practice"
"","","","","","html-keyboard-response","69","366228","0.0-7.1-0.1-1.27","null","<span style='color:GreenYellow; font-size: 70px;'>正确! </span>","null","","","","","","","","","","","","","","","","","","","","","","","","","feedback"
"","","","","","psychophysics","70","368086","0.0-7.1-0.1-0.28","702","","j","","","","","","","","","","","","","key","j","16.668099999999818","768","428","./1_3_Stimuli/C_ambi40.png","自我","Word","朋友","Mismatch","f","false","Practice"
"","","","","","html-keyboard-response","71","368389","0.0-7.1-0.1-1.28","null","<span style='color:red; font-size: 70px;'>错误! </span>","null","","","","","","","","","","","","","","","","","","","","","","","","","feedback"
"","","","","","psychophysics","72","370517","0.0-7.1-0.1-0.29","977","","f","","","","","","","","","","","","","key","f","16.665960317460492","768","428","./1_3_Stimuli/T_ambi40.png","朋友","Word","自我","Mismatch","f","true","Practice"
"","","","","","html-keyboard-response","73","370829","0.0-7.1-0.1-1.29","null","<span style='color:GreenYellow; font-size: 70px;'>正确! </span>","null","","","","","","","","","","","","","","","","","","","","","","","","","feedback"
"","","","","","psychophysics","74","372838","0.0-7.1-0.1-0.30","848","","j","","","","","","","","","","","","","key","j","16.66583193277308","768","428","./1_3_Stimuli/T_ambi40.png","自我","Image","自我","Match","j","true","Practice"
"","","","","","html-keyboard-response","75","373150","0.0-7.1-0.1-1.30","null","<span style='color:GreenYellow; font-size: 70px;'>正确! </span>","null","","","","","","","","","","","","","","","","","","","","","","","","","feedback"
"","","","","","psychophysics","76","375361","0.0-7.1-0.1-0.31","1056","","j","","","","","","","","","","","","","key","j","16.666962121212045","768","428","./1_3_Stimuli/T_ambi40.png","他人","Image","自我","Mismatch","f","false","Practice"
"","","","","","html-keyboard-response","77","375674","0.0-7.1-0.1-1.31","null","<span style='color:red; font-size: 70px;'>错误! </span>","null","","","","","","","","","","","","","","","","","","","","","","","","","feedback"
"","","","","","psychophysics","78","378377","0.0-7.1-0.1-0.32","null","","null","","","","","","","","","","","","","key","null","16.66627777777763","768","428","./1_3_Stimuli/C_ambi40.png","朋友","Word","朋友","Match","j","false","Practice"
"","","","","","html-keyboard-response","79","378686","0.0-7.1-0.1-1.32","null","<span class='add_' style='color:yellow; font-size: 70px;'> 太慢! </span>","null","","","","","","","","","","","","","","","","","","","","","","","","","feedback"
"","","","","","psychophysics","80","380765","0.0-7.1-0.1-0.33","925","","f","","","","","","","","","","","","","key","f","16.665403225806056","768","428","./1_3_Stimuli/T_ambi40.png","朋友","Image","自我","Mismatch","f","true","Practice"
"","","","","","html-keyboard-response","81","381070","0.0-7.1-0.1-1.33","null","<span style='color:GreenYellow; font-size: 70px;'>正确! </span>","null","","","","","","","","","","","","","","","","","","","","","","","","","feedback"
"","","","","","psychophysics","82","383670","0.0-7.1-0.1-0.34","1446","","j","","","","","","","","","","","","","key","j","16.66579354838731","768","428","./1_3_Stimuli/C_ambi40.png","朋友","Image","朋友","Match","j","true","Practice"
"","","","","","html-keyboard-response","83","383985","0.0-7.1-0.1-1.34","null","<span style='color:GreenYellow; font-size: 70px;'>正确! </span>","null","","","","","","","","","","","","","","","","","","","","","","","","","feedback"
"","","","","","psychophysics","84","386153","0.0-7.1-0.1-0.35","1014","","f","","","","","","","","","","","","","key","f","16.667131782945717","768","428","./1_3_Stimuli/S_ambi40.png","朋友","Image","他人","Mismatch","f","true","Practice"
"","","","","","html-keyboard-response","85","386456","0.0-7.1-0.1-1.35","null","<span style='color:GreenYellow; font-size: 70px;'>正确! </span>","null","","","","","","","","","","","","","","","","","","","","","","","","","feedback"
"","","","","","psychophysics","86","388826","0.0-7.1-0.1-0.36","1212","","j","","","","","","","","","","","","","key","j","16.666595744680784","768","428","./1_3_Stimuli/S_ambi40.png","他人","Word","他人","Match","j","true","Practice"
"","","","","","html-keyboard-response","87","389129","0.0-7.1-0.1-1.36","null","<span style='color:GreenYellow; font-size: 70px;'>正确! </span>","null","","","","","","","","","","","","","","","","","","","","","","","","","feedback"
"","","","","","psychophysics","88","391661","0.0-7.1-0.1-0.37","1372","","f","","","","","","","","","","","","","key","f","16.666178807946977","768","428","./1_3_Stimuli/S_ambi40.png","他人","Word","他人","Match","j","false","Practice"
"","","","","","html-keyboard-response","89","391964","0.0-7.1-0.1-1.37","null","<span style='color:red; font-size: 70px;'>错误! </span>","null","","","","","","","","","","","","","","","","","","","","","","","","","feedback"
"","","","","","psychophysics","90","394029","0.0-7.1-0.1-0.38","907","","f","","","","","","","","","","","","","key","f","16.66691056910592","768","428","./1_3_Stimuli/S_ambi40.png","自我","Word","他人","Mismatch","f","true","Practice"
"","","","","","html-keyboard-response","91","394331","0.0-7.1-0.1-1.38","null","<span style='color:GreenYellow; font-size: 70px;'>正确! </span>","null","","","","","","","","","","","","","","","","","","","","","","","","","feedback"
"","","","","","psychophysics","92","396137","0.0-7.1-0.1-0.39","649","","j","","","","","","","","","","","","","key","j","16.66644859813082","768","428","./1_3_Stimuli/T_ambi40.png","自我","Image","自我","Match","j","true","Practice"
"","","","","","html-keyboard-response","93","396438","0.0-7.1-0.1-1.39","null","<span style='color:GreenYellow; font-size: 70px;'>正确! </span>","null","","","","","","","","","","","","","","","","","","","","","","","","","feedback"
"","","","","","psychophysics","94","398365","0.0-7.1-0.1-0.40","777","","j","","","","","","","","","","","","","key","j","16.666140350877214","768","428","./1_3_Stimuli/C_ambi40.png","朋友","Image","朋友","Match","j","true","Practice"
"","","","","","html-keyboard-response","95","398668","0.0-7.1-0.1-1.40","null","<span style='color:GreenYellow; font-size: 70px;'>正确! </span>","null","","","","","","","","","","","","","","","","","","","","","","","","","feedback"
"","","","","","psychophysics","96","400641","0.0-7.1-0.1-0.41","819","","f","","","","","","","","","","","","","key","f","16.665830508474325","768","428","./1_3_Stimuli/C_ambi40.png","他人","Word","朋友","Mismatch","f","true","Practice"
"","","","","","html-keyboard-response","97","400944","0.0-7.1-0.1-1.41","null","<span style='color:GreenYellow; font-size: 70px;'>正确! </span>","null","","","","","","","","","","","","","","","","","","","","","","","","","feedback"
"","","","","","psychophysics","98","403277","0.0-7.1-0.1-0.42","1171","","f","","","","","","","","","","","","","key","f","16.665582733812972","768","428","./1_3_Stimuli/S_ambi40.png","朋友","Word","他人","Mismatch","f","true","Practice"
"","","","","","html-keyboard-response","99","403586","0.0-7.1-0.1-1.42","null","<span style='color:GreenYellow; font-size: 70px;'>正确! </span>","null","","","","","","","","","","","","","","","","","","","","","","","","","feedback"
"","","","","","psychophysics","100","405674","0.0-7.1-0.1-0.43","936","","f","","","","","","","","","","","","","key","f","16.666168000000063","768","428","./1_3_Stimuli/C_ambi40.png","他人","Image","朋友","Mismatch","f","true","Practice"
"","","","","","html-keyboard-response","101","405978","0.0-7.1-0.1-1.43","null","<span style='color:GreenYellow; font-size: 70px;'>正确! </span>","null","","","","","","","","","","","","","","","","","","","","","","","","","feedback"
"","","","","","psychophysics","102","407809","0.0-7.1-0.1-0.44","674","","j","","","","","","","","","","","","","key","j","16.66654128440359","768","428","./1_3_Stimuli/C_ambi40.png","朋友","Word","朋友","Match","j","true","Practice"
"","","","","","html-keyboard-response","103","408111","0.0-7.1-0.1-1.44","null","<span style='color:GreenYellow; font-size: 70px;'>正确! </span>","null","","","","","","","","","","","","","","","","","","","","","","","","","feedback"
"","","","","","psychophysics","104","410313","0.0-7.1-0.1-0.45","1041","","f","","","","","","","","","","","","","key","f","16.666015267175737","768","428","./1_3_Stimuli/S_ambi40.png","自我","Image","他人","Mismatch","f","true","Practice"
"","","","","","html-keyboard-response","105","410617","0.0-7.1-0.1-1.45","null","<span style='color:GreenYellow; font-size: 70px;'>正确! </span>","null","","","","","","","","","","","","","","","","","","","","","","","","","feedback"
"","","","","","psychophysics","106","412690","0.0-7.1-0.1-0.46","918","","f","","","","","","","","","","","","","key","f","16.6664193548387","768","428","./1_3_Stimuli/C_ambi40.png","自我","Image","朋友","Mismatch","f","true","Practice"
"","","","","","html-keyboard-response","107","412996","0.0-7.1-0.1-1.46","null","<span style='color:GreenYellow; font-size: 70px;'>正确! </span>","null","","","","","","","","","","","","","","","","","","","","","","","","","feedback"
"","","","","","psychophysics","108","415065","0.0-7.1-0.1-0.47","911","","f","","","","","","","","","","","","","key","f","16.666715447154424","768","428","./1_3_Stimuli/T_ambi40.png","他人","Word","自我","Mismatch","f","true","Practice"
"","","","","","html-keyboard-response","109","415377","0.0-7.1-0.1-1.47","null","<span style='color:GreenYellow; font-size: 70px;'>正确! </span>","null","","","","","","","","","","","","","","","","","","","","","","","","","feedback"
"","","","","","html-keyboard-response","110","417598","0.0-7.1-1.1-0.1","2220","<style>.context{color:white; font-size: 35px; line-height:40px}</style>                        <div><p class='context'>您正确回答了83% 的试次。</p><p class='context'>您的平均反应时为928毫秒。</p><p> <div style = 'color: green'><按空格键至下页></div></p>"," ","","","","","","","","","","","","","","","","","","","","","","","","",""
"","","","","","instructions","111","421834","0.0-7.1-1.1-1.1","4235","","","","","","","","","","","","","","[{""page_index"":0,""viewing_time"":2256},{""page_index"":1,""viewing_time"":1001},{""page_index"":2,""viewing_time"":978}]","","","","","","","","","","","","",""
"","","","","","psychophysics","112","423869","0.0-7.2-0.2-0.48","881","","f","","","","","","","","","","","","","key","f","16.66653719008275","768","428","./1_3_Stimuli/T_ambi40.png","朋友","Image","自我","Mismatch","f","true","Practice"
"","","","","","html-keyboard-response","113","424175","0.0-7.2-0.2-1.48","null","<span style='color:GreenYellow; font-size: 70px;'>正确! </span>","null","","","","","","","","","","","","","","","","","","","","","","","","","feedback"
"","","","","","psychophysics","114","426025","0.0-7.2-0.2-0.49","695","","j","","","","","","","","","","","","","key","j","16.666536363636524","768","428","./1_3_Stimuli/C_ambi40.png","朋友","Image","朋友","Match","j","true","Practice"
"","","","","","html-keyboard-response","115","426333","0.0-7.2-0.2-1.49","null","<span style='color:GreenYellow; font-size: 70px;'>正确! </span>","null","","","","","","","","","","","","","","","","","","","","","","","","","feedback"
"","","","","","psychophysics","116","428553","0.0-7.2-0.2-0.50","1065","","f","","","","","","","","","","","","","key","f","16.66627272727254","768","428","./1_3_Stimuli/S_ambi40.png","他人","Image","他人","Match","j","false","Practice"
"","","","","","html-keyboard-response","117","428856","0.0-7.2-0.2-1.50","null","<span style='color:red; font-size: 70px;'>错误! </span>","null","","","","","","","","","","","","","","","","","","","","","","","","","feedback"
"","","","","","psychophysics","118","430689","0.0-7.2-0.2-0.51","675","","f","","","","","","","","","","","","","key","f","16.66662385321111","768","428","./1_3_Stimuli/S_ambi40.png","自我","Word","他人","Mismatch","f","true","Practice"
"","","","","","html-keyboard-response","119","430991","0.0-7.2-0.2-1.51","null","<span style='color:GreenYellow; font-size: 70px;'>正确! </span>","null","","","","","","","","","","","","","","","","","","","","","","","","","feedback"
"","","","","","psychophysics","120","433237","0.0-7.2-0.2-0.52","1091","","f","","","","","","","","","","","","","key","f","16.66642105263173","768","428","./1_3_Stimuli/S_ambi40.png","他人","Image","他人","Match","j","false","Practice"
"","","","","","html-keyboard-response","121","433548","0.0-7.2-0.2-1.52","null","<span style='color:red; font-size: 70px;'>错误! </span>","null","","","","","","","","","","","","","","","","","","","","","","","","","feedback"
"","","","","","psychophysics","122","435409","0.0-7.2-0.2-0.53","704","","f","","","","","","","","","","","","","key","f","16.6659459459458","768","428","./1_3_Stimuli/C_ambi40.png","他人","Image","朋友","Mismatch","f","true","Practice"
"","","","","","html-keyboard-response","123","435711","0.0-7.2-0.2-1.53","null","<span style='color:GreenYellow; font-size: 70px;'>正确! </span>","null","","","","","","","","","","","","","","","","","","","","","","","","","feedback"
"","","","","","psychophysics","124","437525","0.0-7.2-0.2-0.54","657","","f","","","","","","","","","","","","","key","f","16.66731481481488","768","428","./1_3_Stimuli/S_ambi40.png","他人","Word","他人","Match","j","false","Practice"
"","","","","","html-keyboard-response","125","437828","0.0-7.2-0.2-1.54","null","<span style='color:red; font-size: 70px;'>错误! </span>","null","","","","","","","","","","","","","","","","","","","","","","","","","feedback"
"","","","","","psychophysics","126","439753","0.0-7.2-0.2-0.55","769","","j","","","","","","","","","","","","","key","j","16.666121739130364","768","428","./1_3_Stimuli/T_ambi40.png","自我","Word","自我","Match","j","true","Practice"
"","","","","","html-keyboard-response","127","440068","0.0-7.2-0.2-1.55","null","<span style='color:GreenYellow; font-size: 70px;'>正确! </span>","null","","","","","","","","","","","","","","","","","","","","","","","","","feedback"
"","","","","","psychophysics","128","441729","0.0-7.2-0.2-0.56","508","","j","","","","","","","","","","","","","key","j","16.668484848484777","768","428","./1_3_Stimuli/T_ambi40.png","自我","Image","自我","Match","j","true","Practice"
"","","","","","html-keyboard-response","129","442034","0.0-7.2-0.2-1.56","null","<span style='color:GreenYellow; font-size: 70px;'>正确! </span>","null","","","","","","","","","","","","","","","","","","","","","","","","","feedback"
"","","","","","psychophysics","130","443853","0.0-7.2-0.2-0.57","665","","f","","","","","","","","","","","","","key","f","16.666675925925826","768","428","./1_3_Stimuli/T_ambi40.png","他人","Image","自我","Mismatch","f","true","Practice"
"","","","","","html-keyboard-response","131","444167","0.0-7.2-0.2-1.57","null","<span style='color:GreenYellow; font-size: 70px;'>正确! </span>","null","","","","","","","","","","","","","","","","","","","","","","","","","feedback"
"","","","","","psychophysics","132","446123","0.0-7.2-0.2-0.58","802","","f","","","","","","","","","","","","","key","f","16.66668376068358","768","428","./1_3_Stimuli/S_ambi40.png","朋友","Image","他人","Mismatch","f","true","Practice"
"","","","","","html-keyboard-response","133","446439","0.0-7.2-0.2-1.58","null","<span style='color:GreenYellow; font-size: 70px;'>正确! </span>","null","","","","","","","","","","","","","","","","","","","","","","","","","feedback"
"","","","","","psychophysics","134","448569","0.0-7.2-0.2-0.59","970","","f","","","","","","","","","","","","","key","f","16.666650793650962","768","428","./1_3_Stimuli/C_ambi40.png","他人","Word","朋友","Mismatch","f","true","Practice"
"","","","","","html-keyboard-response","135","448871","0.0-7.2-0.2-1.59","null","<span style='color:GreenYellow; font-size: 70px;'>正确! </span>","null","","","","","","","","","","","","","","","","","","","","","","","","","feedback"
"","","","","","psychophysics","136","450909","0.0-7.2-0.2-0.60","888","","f","","","","","","","","","","","","","key","f","16.666512396694102","768","428","./1_3_Stimuli/C_ambi40.png","自我","Image","朋友","Mismatch","f","true","Practice"
"","","","","","html-keyboard-response","137","451221","0.0-7.2-0.2-1.60","null","<span style='color:GreenYellow; font-size: 70px;'>正确! </span>","null","","","","","","","","","","","","","","","","","","","","","","","","","feedback"
"","","","","","psychophysics","138","453377","0.0-7.2-0.2-0.61","1006","","f","","","","","","","","","","","","","key","f","16.66562790697659","768","428","./1_3_Stimuli/C_ambi40.png","朋友","Word","朋友","Match","j","false","Practice"
"","","","","","html-keyboard-response","139","453691","0.0-7.2-0.2-1.61","null","<span style='color:red; font-size: 70px;'>错误! </span>","null","","","","","","","","","","","","","","","","","","","","","","","","","feedback"
"","","","","","psychophysics","140","455313","0.0-7.2-0.2-0.62","464","","j","","","","","","","","","","","","","key","j","16.668927835051534","768","428","./1_3_Stimuli/C_ambi40.png","朋友","Word","朋友","Match","j","true","Practice"
"","","","","","html-keyboard-response","141","455621","0.0-7.2-0.2-1.62","null","<span style='color:GreenYellow; font-size: 70px;'>正确! </span>","null","","","","","","","","","","","","","","","","","","","","","","","","","feedback"
"","","","","","psychophysics","142","457361","0.0-7.2-0.2-0.63","589","","j","","","","","","","","","","","","","key","j","16.66651456310692","768","428","./1_3_Stimuli/C_ambi40.png","自我","Word","朋友","Mismatch","f","false","Practice"
"","","","","","html-keyboard-response","143","457675","0.0-7.2-0.2-1.63","null","<span style='color:red; font-size: 70px;'>错误! </span>","null","","","","","","","","","","","","","","","","","","","","","","","","","feedback"
"","","","","","psychophysics","144","459594","0.0-7.2-0.2-0.64","757","","f","","","","","","","","","","","","","key","f","16.6664434782609","768","428","./1_3_Stimuli/T_ambi40.png","朋友","Word","自我","Mismatch","f","true","Practice"
"","","","","","html-keyboard-response","145","459900","0.0-7.2-0.2-1.64","null","<span style='color:GreenYellow; font-size: 70px;'>正确! </span>","null","","","","","","","","","","","","","","","","","","","","","","","","","feedback"
"","","","","","psychophysics","146","461839","0.0-7.2-0.2-0.65","785","","f","","","","","","","","","","","","","key","f","16.810120689655566","768","428","./1_3_Stimuli/T_ambi40.png","他人","Word","自我","Mismatch","f","true","Practice"
"","","","","","html-keyboard-response","147","462149","0.0-7.2-0.2-1.65","null","<span style='color:GreenYellow; font-size: 70px;'>正确! </span>","null","","","","","","","","","","","","","","","","","","","","","","","","","feedback"
"","","","","","psychophysics","148","464153","0.0-7.2-0.2-0.66","849","","f","","","","","","","","","","","","","key","f","16.667235294117752","768","428","./1_3_Stimuli/S_ambi40.png","朋友","Word","他人","Mismatch","f","true","Practice"
"","","","","","html-keyboard-response","149","464465","0.0-7.2-0.2-1.66","null","<span style='color:GreenYellow; font-size: 70px;'>正确! </span>","null","","","","","","","","","","","","","","","","","","","","","","","","","feedback"
"","","","","","psychophysics","150","466353","0.0-7.2-0.2-0.67","733","","f","","","","","","","","","","","","","key","f","16.66658928571425","768","428","./1_3_Stimuli/C_ambi40.png","朋友","Image","朋友","Match","j","false","Practice"
"","","","","","html-keyboard-response","151","466669","0.0-7.2-0.2-1.67","null","<span style='color:red; font-size: 70px;'>错误! </span>","null","","","","","","","","","","","","","","","","","","","","","","","","","feedback"
"","","","","","psychophysics","152","468037","0.0-7.2-0.2-0.68","216","","j","","","","","","","","","","","","","key","j","16.66643750000003","768","428","./1_3_Stimuli/S_ambi40.png","自我","Image","他人","Mismatch","f","false","Practice"
"","","","","","html-keyboard-response","153","468351","0.0-7.2-0.2-1.68","null","<span style='color:red; font-size: 70px;'>错误! </span>","null","","","","","","","","","","","","","","","","","","","","","","","","","feedback"
"","","","","","psychophysics","154","469629","0.0-7.2-0.2-0.69","125","","j","","","","","","","","","","","","","key","j","16.666355263158422","768","428","./1_3_Stimuli/S_ambi40.png","他人","Word","他人","Match","j","true","Practice"
"","","","","","html-keyboard-response","155","469931","0.0-7.2-0.2-1.69","null","<span style='color:yellow; font-size: 70px;'>过快! </span>","null","","","","","","","","","","","","","","","","","","","","","","","","","feedback"
"","","","","","psychophysics","156","471169","0.0-7.2-0.2-0.70","82","","j","","","","","","","","","","","","","key","j","16.666356164383167","768","428","./1_3_Stimuli/T_ambi40.png","自我","Word","自我","Match","j","true","Practice"
"","","","","","html-keyboard-response","157","471469","0.0-7.2-0.2-1.70","null","<span style='color:yellow; font-size: 70px;'>过快! </span>","null","","","","","","","","","","","","","","","","","","","","","","","","","feedback"
"","","","","","psychophysics","158","474171","0.0-7.2-0.2-0.71","null","","null","","","","","","","","","","","","","key","null","16.666168749999997","768","428","./1_3_Stimuli/T_ambi40.png","自我","Image","自我","Match","j","false","Practice"
"","","","","","html-keyboard-response","159","474478","0.0-7.2-0.2-1.71","null","<span class='add_' style='color:yellow; font-size: 70px;'> 太慢! </span>","null","","","","","","","","","","","","","","","","","","","","","","","","","feedback"
"","","","","","html-keyboard-response","160","476833","0.0-7.2-1.2-0.2","2354","<style>.context{color:white; font-size: 35px; line-height:40px}</style>                        <div><p class='context'>您正确回答了67% 的试次。</p><p class='context'>您的平均反应时为664毫秒。</p><p> <div style = 'color: green'><按空格键至下页></div></p>"," ","","","","","","","","","","","","","","","","","","","","","","","","",""
"","","","","","instructions","161","485066","0.0-7.2-1.2-1.2","8231","","","","","","","","","","","","","","[{""page_index"":0,""viewing_time"":4461},{""page_index"":1,""viewing_time"":2780},{""page_index"":2,""viewing_time"":990}]","","","","","","","","","","","","",""
"","","","","","psychophysics","162","487101","0.0-7.3-0.3-0.72","881","","j","","","","","","","","","","","","","key","j","16.665991735537364","768","428","./1_3_Stimuli/S_ambi40.png","他人","Image","他人","Match","j","true","Practice"
"","","","","","html-keyboard-response","163","487414","0.0-7.3-0.3-1.72","null","<span style='color:GreenYellow; font-size: 70px;'>正确! </span>","null","","","","","","","","","","","","","","","","","","","","","","","","","feedback"
"","","","","","psychophysics","164","489254","0.0-7.3-0.3-0.73","685","","f","","","","","","","","","","","","","key","f","16.66676363636348","768","428","./1_3_Stimuli/S_ambi40.png","他人","Image","他人","Match","j","false","Practice"
"","","","","","html-keyboard-response","165","489563","0.0-7.3-0.3-1.73","null","<span style='color:red; font-size: 70px;'>错误! </span>","null","","","","","","","","","","","","","","","","","","","","","","","","","feedback"
"","","","","","psychophysics","166","491993","0.0-7.3-0.3-0.74","1272","","j","","","","","","","","","","","","","key","j","16.666048275862","768","428","./1_3_Stimuli/S_ambi40.png","他人","Word","他人","Match","j","true","Practice"
"","","","","","html-keyboard-response","167","492299","0.0-7.3-0.3-1.74","null","<span style='color:GreenYellow; font-size: 70px;'>正确! </span>","null","","","","","","","","","","","","","","","","","","","","","","","","","feedback"
"","","","","","psychophysics","168","494377","0.0-7.3-0.3-0.75","923","","f","","","","","","","","","","","","","key","f","16.666508064516105","768","428","./1_3_Stimuli/C_ambi40.png","他人","Image","朋友","Mismatch","f","true","Practice"
"","","","","","html-keyboard-response","169","494693","0.0-7.3-0.3-1.75","null","<span style='color:GreenYellow; font-size: 70px;'>正确! </span>","null","","","","","","","","","","","","","","","","","","","","","","","","","feedback"
"","","","","","psychophysics","170","496998","0.0-7.3-0.3-0.76","1145","","f","","","","","","","","","","","","","key","f","16.665883211678583","768","428","./1_3_Stimuli/T_ambi40.png","朋友","Image","自我","Mismatch","f","true","Practice"
"","","","","","html-keyboard-response","171","497303","0.0-7.3-0.3-1.76","null","<span style='color:GreenYellow; font-size: 70px;'>正确! </span>","null","","","","","","","","","","","","","","","","","","","","","","","","","feedback"
"","","","","","psychophysics","172","499401","0.0-7.3-0.3-0.77","947","","f","","","","","","","","","","","","","key","f","16.66661290322607","768","428","./1_3_Stimuli/T_ambi40.png","他人","Word","自我","Mismatch","f","true","Practice"
"","","","","","html-keyboard-response","173","499707","0.0-7.3-0.3-1.77","null","<span style='color:GreenYellow; font-size: 70px;'>正确! </span>","null","","","","","","","","","","","","","","","","","","","","","","","","","feedback"
"","","","","","psychophysics","174","501586","0.0-7.3-0.3-0.78","725","","f","","","","","","","","","","","","","key","f","16.666339285714326","768","428","./1_3_Stimuli/S_ambi40.png","自我","Word","他人","Mismatch","f","true","Practice"
"","","","","","html-keyboard-response","175","501897","0.0-7.3-0.3-1.78","null","<span style='color:GreenYellow; font-size: 70px;'>正确! </span>","null","","","","","","","","","","","","","","","","","","","","","","","","","feedback"
"","","","","","psychophysics","176","504022","0.0-7.3-0.3-0.79","968","","f","","","","","","","","","","","","","key","f","16.66616535433073","768","428","./1_3_Stimuli/C_ambi40.png","朋友","Word","朋友","Match","j","false","Practice"
"","","","","","html-keyboard-response","177","504336","0.0-7.3-0.3-1.79","null","<span style='color:red; font-size: 70px;'>错误! </span>","null","","","","","","","","","","","","","","","","","","","","","","","","","feedback"
"","","","","","psychophysics","178","506429","0.0-7.3-0.3-0.80","943","","f","","","","","","","","","","","","","key","f","16.66668548387092","768","428","./1_3_Stimuli/T_ambi40.png","他人","Image","自我","Mismatch","f","true","Practice"
"","","","","","html-keyboard-response","179","506741","0.0-7.3-0.3-1.80","null","<span style='color:GreenYellow; font-size: 70px;'>正确! </span>","null","","","","","","","","","","","","","","","","","","","","","","","","","feedback"
"","","","","","psychophysics","180","508653","0.0-7.3-0.3-0.81","751","","j","","","","","","","","","","","","","key","j","16.666725663716527","768","428","./1_3_Stimuli/S_ambi40.png","他人","Word","他人","Match","j","true","Practice"
"","","","","","html-keyboard-response","181","508968","0.0-7.3-0.3-1.81","null","<span style='color:GreenYellow; font-size: 70px;'>正确! </span>","null","","","","","","","","","","","","","","","","","","","","","","","","","feedback"
"","","","","","psychophysics","182","510817","0.0-7.3-0.3-0.82","697","","j","","","","","","","","","","","","","key","j","16.817227272727443","768","428","./1_3_Stimuli/T_ambi40.png","自我","Word","自我","Match","j","true","Practice"
"","","","","","html-keyboard-response","183","511132","0.0-7.3-0.3-1.82","null","<span style='color:GreenYellow; font-size: 70px;'>正确! </span>","null","","","","","","","","","","","","","","","","","","","","","","","","","feedback"
"","","","","","psychophysics","184","512909","0.0-7.3-0.3-0.83","623","","j","","","","","","","","","","","","","key","j","16.666405660377592","768","428","./1_3_Stimuli/T_ambi40.png","自我","Word","自我","Match","j","true","Practice"
"","","","","","html-keyboard-response","185","513211","0.0-7.3-0.3-1.83","null","<span style='color:GreenYellow; font-size: 70px;'>正确! </span>","null","","","","","","","","","","","","","","","","","","","","","","","","","feedback"
"","","","","","psychophysics","186","514877","0.0-7.3-0.3-0.84","508","","j","","","","","","","","","","","","","key","j","16.666868686868874","768","428","./1_3_Stimuli/C_ambi40.png","朋友","Image","朋友","Match","j","true","Practice"
"","","","","","html-keyboard-response","187","515187","0.0-7.3-0.3-1.84","null","<span style='color:GreenYellow; font-size: 70px;'>正确! </span>","null","","","","","","","","","","","","","","","","","","","","","","","","","feedback"
"","","","","","psychophysics","188","516806","0.0-7.3-0.3-0.85","468","","j","","","","","","","","","","","","","key","j","16.664614583333485","768","428","./1_3_Stimuli/C_ambi40.png","朋友","Word","朋友","Match","j","true","Practice"
"","","","","","html-keyboard-response","189","517120","0.0-7.3-0.3-1.85","null","<span style='color:GreenYellow; font-size: 70px;'>正确! </span>","null","","","","","","","","","","","","","","","","","","","","","","","","","feedback"
"","","","","","psychophysics","190","519285","0.0-7.3-0.3-0.86","1015","","f","","","","","","","","","","","","","key","f","16.666515625000102","768","428","./1_3_Stimuli/S_ambi40.png","自我","Image","他人","Mismatch","f","true","Practice"
"","","","","","html-keyboard-response","191","519588","0.0-7.3-0.3-1.86","null","<span style='color:GreenYellow; font-size: 70px;'>正确! </span>","null","","","","","","","","","","","","","","","","","","","","","","","","","feedback"
"","","","","","psychophysics","192","521322","0.0-7.3-0.3-0.87","572","","j","","","","","","","","","","","","","key","j","16.66658653846165","768","428","./1_3_Stimuli/T_ambi40.png","自我","Image","自我","Match","j","true","Practice"
"","","","","","html-keyboard-response","193","521630","0.0-7.3-0.3-1.87","null","<span style='color:GreenYellow; font-size: 70px;'>正确! </span>","null","","","","","","","","","","","","","","","","","","","","","","","","","feedback"
"","","","","","psychophysics","194","523638","0.0-7.3-0.3-0.88","851","","j","","","","","","","","","","","","","key","j","16.666549999999795","768","428","./1_3_Stimuli/C_ambi40.png","朋友","Image","朋友","Match","j","true","Practice"
"","","","","","html-keyboard-response","195","523947","0.0-7.3-0.3-1.88","null","<span style='color:GreenYellow; font-size: 70px;'>正确! </span>","null","","","","","","","","","","","","","","","","","","","","","","","","","feedback"
"","","","","","psychophysics","196","525781","0.0-7.3-0.3-0.89","677","","f","","","","","","","","","","","","","key","f","16.667119266054115","768","428","./1_3_Stimuli/C_ambi40.png","自我","Image","朋友","Mismatch","f","true","Practice"
"","","","","","html-keyboard-response","197","526095","0.0-7.3-0.3-1.89","null","<span style='color:GreenYellow; font-size: 70px;'>正确! </span>","null","","","","","","","","","","","","","","","","","","","","","","","","","feedback"
"","","","","","psychophysics","198","528226","0.0-7.3-0.3-0.90","974","","f","","","","","","","","","","","","","key","f","16.66686614173259","768","428","./1_3_Stimuli/C_ambi40.png","他人","Word","朋友","Mismatch","f","true","Practice"
"","","","","","html-keyboard-response","199","528537","0.0-7.3-0.3-1.90","null","<span style='color:GreenYellow; font-size: 70px;'>正确! </span>","null","","","","","","","","","","","","","","","","","","","","","","","","","feedback"
"","","","","","psychophysics","200","530471","0.0-7.3-0.3-0.91","774","","f","","","","","","","","","","","","","key","f","16.666508620689175","768","428","./1_3_Stimuli/T_ambi40.png","朋友","Word","自我","Mismatch","f","true","Practice"
"","","","","","html-keyboard-response","201","530779","0.0-7.3-0.3-1.91","null","<span style='color:GreenYellow; font-size: 70px;'>正确! </span>","null","","","","","","","","","","","","","","","","","","","","","","","","","feedback"
"","","","","","psychophysics","202","532593","0.0-7.3-0.3-0.92","656","","j","","","","","","","","","","","","","key","j","16.665944444444634","768","428","./1_3_Stimuli/T_ambi40.png","自我","Image","自我","Match","j","true","Practice"
"","","","","","html-keyboard-response","203","532895","0.0-7.3-0.3-1.92","null","<span style='color:GreenYellow; font-size: 70px;'>正确! </span>","null","","","","","","","","","","","","","","","","","","","","","","","","","feedback"
"","","","","","psychophysics","204","535009","0.0-7.3-0.3-0.93","956","","f","","","","","","","","","","","","","key","f","16.66646825396807","768","428","./1_3_Stimuli/S_ambi40.png","朋友","Word","他人","Mismatch","f","true","Practice"
"","","","","","html-keyboard-response","205","535322","0.0-7.3-0.3-1.93","null","<span style='color:GreenYellow; font-size: 70px;'>正确! </span>","null","","","","","","","","","","","","","","","","","","","","","","","","","feedback"
"","","","","","psychophysics","206","537229","0.0-7.3-0.3-0.94","745","","f","","","","","","","","","","","","","key","f","16.66550442477919","768","428","./1_3_Stimuli/C_ambi40.png","自我","Word","朋友","Mismatch","f","true","Practice"
"","","","","","html-keyboard-response","207","537533","0.0-7.3-0.3-1.94","null","<span style='color:GreenYellow; font-size: 70px;'>正确! </span>","null","","","","","","","","","","","","","","","","","","","","","","","","","feedback"
"","","","","","psychophysics","208","539950","0.0-7.3-0.3-0.95","1263","","f","","","","","","","","","","","","","key","f","16.66681249999965","768","428","./1_3_Stimuli/S_ambi40.png","朋友","Image","他人","Mismatch","f","true","Practice"
"","","","","","html-keyboard-response","209","540256","0.0-7.3-0.3-1.95","null","<span style='color:GreenYellow; font-size: 70px;'>正确! </span>","null","","","","","","","","","","","","","","","","","","","","","","","","","feedback"
"","","","","","html-keyboard-response","210","551495","0.0-8.0","11238","<style>.context{color:white; font-size: 35px; line-height:40px}</style>                          <div><p class='context'>您正确回答了92% 的试次。</p><p class='context'>您的平均反应时为835毫秒。</p><p class='context'>恭喜您完成练习。现在请休息3~5分钟。</p><p class='context'>之后，按任意键进入正式实验。需要注意的是，正式实验将不再提供反应是否正确的反馈。</p><p class='footer' style='font-size: 35px; line-height:40px;'>请在进入正式实验实验之前将您的<span style='color: lightgreen;'>食指</span>放在电脑键盘的相应键位上进行按键。</p>","j","","","","","","","","","","","","","","","","","","","","","","","","",""
"","","","","","psychophysics","211","553457","0.0-9.0-0.0-0.0","805","","f","","","","","","","","","","","","","key","f","16.666846153845725","768","428","./1_3_Stimuli/C_ambi40.png","他人","Image","朋友","Mismatch","f","true","Formal"
"","","","","","psychophysics","212","555532","0.0-9.0-0.0-0.1","914","","f","","","","","","","","","","","","","key","f","16.665406504064812","768","428","./1_3_Stimuli/C_ambi40.png","朋友","Word","朋友","Match","j","false","Formal"
"","","","","","psychophysics","213","557370","0.0-9.0-0.0-0.2","684","","f","","","","","","","","","","","","","key","f","16.66780909090938","768","428","./1_3_Stimuli/S_ambi40.png","朋友","Image","他人","Mismatch","f","true","Formal"
"","","","","","psychophysics","214","559124","0.0-9.0-0.0-0.3","592","","f","","","","","","","","","","","","","key","f","16.667019230769185","768","428","./1_3_Stimuli/T_ambi40.png","朋友","Image","自我","Mismatch","f","true","Formal"
"","","","","","psychophysics","215","561053","0.0-9.0-0.0-0.4","776","","f","","","","","","","","","","","","","key","f","16.666347826086998","768","428","./1_3_Stimuli/T_ambi40.png","朋友","Word","自我","Mismatch","f","true","Formal"
"","","","","","psychophysics","216","562977","0.0-9.0-0.0-0.5","769","","j","","","","","","","","","","","","","key","j","16.666008771929214","768","428","./1_3_Stimuli/S_ambi40.png","他人","Image","他人","Match","j","true","Formal"
"","","","","","psychophysics","217","565204","0.0-9.0-0.0-0.6","1069","","f","","","","","","","","","","","","","key","f","16.66661654135363","768","428","./1_3_Stimuli/C_ambi40.png","他人","Word","朋友","Mismatch","f","true","Formal"
"","","","","","psychophysics","218","567237","0.0-9.0-0.0-0.7","873","","j","","","","","","","","","","","","","key","j","16.666818181817682","768","428","./1_3_Stimuli/S_ambi40.png","他人","Word","他人","Match","j","true","Formal"
"","","","","","psychophysics","219","569141","0.0-9.0-0.0-0.8","743","","f","","","","","","","","","","","","","key","f","16.667353982300565","768","428","./1_3_Stimuli/C_ambi40.png","朋友","Word","朋友","Match","j","false","Formal"
"","","","","","psychophysics","220","571077","0.0-9.0-0.0-0.9","779","","f","","","","","","","","","","","","","key","f","16.666347826086998","768","428","./1_3_Stimuli/C_ambi40.png","自我","Word","朋友","Mismatch","f","true","Formal"
"","","","","","psychophysics","221","573209","0.0-9.0-0.0-0.10","977","","f","","","","","","","","","","","","","key","f","16.666503937008393","768","428","./1_3_Stimuli/S_ambi40.png","朋友","Word","他人","Mismatch","f","true","Formal"
"","","","","","psychophysics","222","574993","0.0-9.0-0.0-0.11","628","","j","","","","","","","","","","","","","key","j","16.66518867924537","768","428","./1_3_Stimuli/T_ambi40.png","自我","Word","自我","Match","j","true","Formal"
"","","","","","psychophysics","223","576849","0.0-9.0-0.0-0.12","698","","f","","","","","","","","","","","","","key","f","16.667172727272423","768","428","./1_3_Stimuli/S_ambi40.png","自我","Word","他人","Mismatch","f","true","Formal"
"","","","","","psychophysics","224","578605","0.0-9.0-0.0-0.13","604","","j","","","","","","","","","","","","","key","j","16.666647619047822","768","428","./1_3_Stimuli/T_ambi40.png","自我","Image","自我","Match","j","true","Formal"
"","","","","","psychophysics","225","580728","0.0-9.0-0.0-0.14","961","","f","","","","","","","","","","","","","key","f","16.666103174603204","768","428","./1_3_Stimuli/T_ambi40.png","他人","Word","自我","Mismatch","f","true","Formal"
"","","","","","psychophysics","226","582788","0.0-9.0-0.0-0.15","903","","j","","","","","","","","","","","","","key","j","16.66635772357676","768","428","./1_3_Stimuli/T_ambi40.png","自我","Image","自我","Match","j","true","Formal"
"","","","","","psychophysics","227","584657","0.0-9.0-0.0-0.16","708","","f","","","","","","","","","","","","","key","f","16.666945945945578","768","428","./1_3_Stimuli/C_ambi40.png","自我","Image","朋友","Mismatch","f","true","Formal"
"","","","","","psychophysics","228","586733","0.0-9.0-0.0-0.17","915","","f","","","","","","","","","","","","","key","f","16.666081300812653","768","428","./1_3_Stimuli/S_ambi40.png","自我","Image","他人","Mismatch","f","true","Formal"
"","","","","","psychophysics","229","589141","0.0-9.0-0.0-0.18","1257","","j","","","","","","","","","","","","","key","j","16.6667291666664","768","428","./1_3_Stimuli/S_ambi40.png","他人","Word","他人","Match","j","true","Formal"
"","","","","","psychophysics","230","591488","0.0-9.0-0.0-0.19","1188","","j","","","","","","","","","","","","","key","j","16.665714285713953","768","428","./1_3_Stimuli/C_ambi40.png","朋友","Image","朋友","Match","j","true","Formal"
"","","","","","psychophysics","231","593688","0.0-9.0-0.0-0.20","1038","","j","","","","","","","","","","","","","key","j","16.665679389312295","768","428","./1_3_Stimuli/S_ambi40.png","他人","Image","他人","Match","j","true","Formal"
"","","","","","psychophysics","232","595489","0.0-9.0-0.0-0.21","643","","j","","","","","","","","","","","","","key","j","16.66613084112107","768","428","./1_3_Stimuli/T_ambi40.png","自我","Word","自我","Match","j","true","Formal"
"","","","","","psychophysics","233","597721","0.0-9.0-0.0-0.22","1080","","j","","","","","","","","","","","","","key","j","16.667248120301235","768","428","./1_3_Stimuli/C_ambi40.png","朋友","Image","朋友","Match","j","true","Formal"
"","","","","","psychophysics","234","600297","0.0-9.0-0.0-0.23","1413","","f","","","","","","","","","","","","","key","f","16.666137254901923","768","428","./1_3_Stimuli/T_ambi40.png","他人","Image","自我","Mismatch","f","true","Formal"
"","","","","","psychophysics","235","602317","0.0-9.0-0.0-0.24","866","","f","","","","","","","","","","","","","key","f","16.666499999999846","768","428","./1_3_Stimuli/C_ambi40.png","自我","Word","朋友","Mismatch","f","true","Formal"
"","","","","","psychophysics","236","604512","0.0-9.0-0.0-0.25","1045","","f","","","","","","","","","","","","","key","f","16.666274809160356","768","428","./1_3_Stimuli/T_ambi40.png","朋友","Image","自我","Mismatch","f","true","Formal"
"","","","","","psychophysics","237","606266","0.0-9.0-0.0-0.26","598","","j","","","","","","","","","","","","","key","j","16.666153846154113","768","428","./1_3_Stimuli/T_ambi40.png","自我","Word","自我","Match","j","true","Formal"
"","","","","","psychophysics","238","608486","0.0-9.0-0.0-0.27","1068","","j","","","","","","","","","","","","","key","j","16.66566917293222","768","428","./1_3_Stimuli/C_ambi40.png","朋友","Image","朋友","Match","j","true","Formal"
"","","","","","psychophysics","239","610864","0.0-9.0-0.0-0.28","1226","","f","","","","","","","","","","","","","key","f","16.66646099290794","768","428","./1_3_Stimuli/T_ambi40.png","他人","Image","自我","Mismatch","f","true","Formal"
"","","","","","psychophysics","240","612749","0.0-9.0-0.0-0.29","733","","j","","","","","","","","","","","","","key","j","16.666803571428837","768","428","./1_3_Stimuli/T_ambi40.png","自我","Image","自我","Match","j","true","Formal"
"","","","","","psychophysics","241","614966","0.0-9.0-0.0-0.30","1064","","j","","","","","","","","","","","","","key","j","16.666257575757548","768","428","./1_3_Stimuli/C_ambi40.png","朋友","Image","朋友","Match","j","true","Formal"
"","","","","","psychophysics","242","616782","0.0-9.0-0.0-0.31","664","","f","","","","","","","","","","","","","key","f","16.666018518518992","768","428","./1_3_Stimuli/C_ambi40.png","自我","Image","朋友","Mismatch","f","true","Formal"
"","","","","","psychophysics","243","619098","0.0-9.0-0.0-0.32","1162","","j","","","","","","","","","","","","","key","j","16.912154411764384","768","428","./1_3_Stimuli/S_ambi40.png","他人","Word","他人","Match","j","true","Formal"
"","","","","","psychophysics","244","621393","0.0-9.0-0.0-0.33","1144","","j","","","","","","","","","","","","","key","j","16.66618978102219","768","428","./1_3_Stimuli/S_ambi40.png","他人","Image","他人","Match","j","true","Formal"
"","","","","","psychophysics","245","623481","0.0-9.0-0.0-0.34","929","","f","","","","","","","","","","","","","key","f","16.666330645161292","768","428","./1_3_Stimuli/S_ambi40.png","朋友","Word","他人","Mismatch","f","true","Formal"
"","","","","","psychophysics","246","625445","0.0-9.0-0.0-0.35","813","","f","","","","","","","","","","","","","key","f","16.664811965812426","768","428","./1_3_Stimuli/S_ambi40.png","自我","Word","他人","Mismatch","f","true","Formal"
"","","","","","psychophysics","247","628138","0.0-9.0-0.0-0.36","1537","","f","","","","","","","","","","","","","key","f","16.666180124223633","768","428","./1_3_Stimuli/S_ambi40.png","朋友","Image","他人","Mismatch","f","true","Formal"
"","","","","","psychophysics","248","630171","0.0-9.0-0.0-0.37","871","","j","","","","","","","","","","","","","key","j","16.666198347107322","768","428","./1_3_Stimuli/S_ambi40.png","他人","Image","他人","Match","j","true","Formal"
"","","","","","psychophysics","249","632142","0.0-9.0-0.0-0.38","807","","f","","","","","","","","","","","","","key","f","16.665948717948446","768","428","./1_3_Stimuli/T_ambi40.png","朋友","Word","自我","Mismatch","f","true","Formal"
"","","","","","psychophysics","250","634154","0.0-9.0-0.0-0.39","858","","f","","","","","","","","","","","","","key","f","16.66599999999938","768","428","./1_3_Stimuli/S_ambi40.png","自我","Image","他人","Mismatch","f","true","Formal"
"","","","","","psychophysics","251","636053","0.0-9.0-0.0-0.40","736","","j","","","","","","","","","","","","","key","j","16.66625663716824","768","428","./1_3_Stimuli/T_ambi40.png","自我","Word","自我","Match","j","true","Formal"
"","","","","","psychophysics","252","638206","0.0-9.0-0.0-0.41","988","","f","","","","","","","","","","","","","key","f","16.666289062499345","768","428","./1_3_Stimuli/C_ambi40.png","他人","Word","朋友","Mismatch","f","true","Formal"
"","","","","","psychophysics","253","640265","0.0-9.0-0.0-0.42","897","","f","","","","","","","","","","","","","key","f","16.66717213114674","768","428","./1_3_Stimuli/C_ambi40.png","朋友","Word","朋友","Match","j","false","Formal"
"","","","","","psychophysics","254","642393","0.0-9.0-0.0-0.43","975","","f","","","","","","","","","","","","","key","f","16.666267716535735","768","428","./1_3_Stimuli/T_ambi40.png","他人","Word","自我","Mismatch","f","true","Formal"
"","","","","","psychophysics","255","644634","0.0-9.0-0.0-0.44","1089","","j","","","","","","","","","","","","","key","j","16.666127819549537","768","428","./1_3_Stimuli/S_ambi40.png","他人","Word","他人","Match","j","true","Formal"
"","","","","","psychophysics","256","646690","0.0-9.0-0.0-0.45","905","","f","","","","","","","","","","","","","key","f","16.667786885245672","768","428","./1_3_Stimuli/C_ambi40.png","他人","Image","朋友","Mismatch","f","true","Formal"
"","","","","","psychophysics","257","648406","0.0-9.0-0.0-0.46","554","","j","","","","","","","","","","","","","key","j","16.666411764705188","768","428","./1_3_Stimuli/T_ambi40.png","自我","Image","自我","Match","j","true","Formal"
"","","","","","psychophysics","258","650173","0.0-9.0-0.0-0.47","605","","j","","","","","","","","","","","","","key","j","16.665895238095185","768","428","./1_3_Stimuli/C_ambi40.png","朋友","Word","朋友","Match","j","true","Formal"
"","","","","","psychophysics","259","651906","0.0-9.0-0.0-0.48","580","","j","","","","","","","","","","","","","key","j","16.665689320388267","768","428","./1_3_Stimuli/T_ambi40.png","自我","Image","自我","Match","j","true","Formal"
"","","","","","psychophysics","260","654165","0.0-9.0-0.0-0.49","1098","","j","","","","","","","","","","","","","key","j","16.66677611940297","768","428","./1_3_Stimuli/C_ambi40.png","朋友","Word","朋友","Match","j","true","Formal"
"","","","","","psychophysics","261","656033","0.0-9.0-0.0-0.50","715","","f","","","","","","","","","","","","","key","f","16.66553636363665","768","428","./1_3_Stimuli/C_ambi40.png","自我","Image","朋友","Mismatch","f","true","Formal"
"","","","","","psychophysics","262","658306","0.0-9.0-0.0-0.51","1122","","j","","","","","","","","","","","","","key","j","16.66652205882351","768","428","./1_3_Stimuli/S_ambi40.png","他人","Word","他人","Match","j","true","Formal"
"","","","","","psychophysics","263","660054","0.0-9.0-0.0-0.52","586","","j","","","","","","","","","","","","","key","j","16.667173076923625","768","428","./1_3_Stimuli/T_ambi40.png","自我","Image","自我","Match","j","true","Formal"
"","","","","","psychophysics","264","662768","0.0-9.0-0.0-0.53","null","","null","","","","","","","","","","","","","key","null","16.666111801242636","768","428","./1_3_Stimuli/S_ambi40.png","朋友","Word","他人","Mismatch","f","false","Formal"
"","","","","","psychophysics","265","664581","0.0-9.0-0.0-0.54","651","","j","","","","","","","","","","","","","key","j","16.666345794392516","768","428","./1_3_Stimuli/T_ambi40.png","自我","Word","自我","Match","j","true","Formal"
"","","","","","psychophysics","266","666619","0.0-9.0-0.0-0.55","885","","f","","","","","","","","","","","","","key","f","16.666008196721524","768","428","./1_3_Stimuli/S_ambi40.png","自我","Image","他人","Mismatch","f","true","Formal"
"","","","","","psychophysics","267","669210","0.0-9.0-0.0-0.56","1436","","f","","","","","","","","","","","","","key","f","16.666720779220327","768","428","./1_3_Stimuli/S_ambi40.png","朋友","Image","他人","Mismatch","f","true","Formal"
"","","","","","psychophysics","268","670930","0.0-9.0-0.0-0.57","563","","j","","","","","","","","","","","","","key","j","16.666274509804698","768","428","./1_3_Stimuli/T_ambi40.png","自我","Word","自我","Match","j","true","Formal"
"","","","","","psychophysics","269","672918","0.0-9.0-0.0-0.58","834","","f","","","","","","","","","","","","","key","f","16.666415254237187","768","428","./1_3_Stimuli/C_ambi40.png","朋友","Word","朋友","Match","j","false","Formal"
"","","","","","psychophysics","270","674893","0.0-9.0-0.0-0.59","824","","f","","","","","","","","","","","","","key","f","16.666931623931273","768","428","./1_3_Stimuli/S_ambi40.png","自我","Word","他人","Mismatch","f","true","Formal"
"","","","","","psychophysics","271","677037","0.0-9.0-0.0-0.60","993","","f","","","","","","","","","","","","","key","f","16.66571093750008","768","428","./1_3_Stimuli/C_ambi40.png","他人","Word","朋友","Mismatch","f","true","Formal"
"","","","","","psychophysics","272","678741","0.0-9.0-0.0-0.61","551","","j","","","","","","","","","","","","","key","j","16.666247524753313","768","428","./1_3_Stimuli/C_ambi40.png","朋友","Image","朋友","Match","j","true","Formal"
"","","","","","psychophysics","273","680719","0.0-9.0-0.0-0.62","818","","f","","","","","","","","","","","","","key","f","16.66625423728828","768","428","./1_3_Stimuli/T_ambi40.png","他人","Word","自我","Mismatch","f","true","Formal"
"","","","","","psychophysics","274","682787","0.0-9.0-0.0-0.63","905","","f","","","","","","","","","","","","","key","f","16.666934959350034","768","428","./1_3_Stimuli/C_ambi40.png","他人","Image","朋友","Mismatch","f","true","Formal"
"","","","","","psychophysics","275","684805","0.0-9.0-0.0-0.64","864","","f","","","","","","","","","","","","","key","f","16.666499999999846","768","428","./1_3_Stimuli/C_ambi40.png","自我","Word","朋友","Mismatch","f","true","Formal"
"","","","","","psychophysics","276","686885","0.0-9.0-0.0-0.65","918","","f","","","","","","","","","","","","","key","f","16.66657258064445","768","428","./1_3_Stimuli/T_ambi40.png","朋友","Image","自我","Mismatch","f","true","Formal"
"","","","","","psychophysics","277","688926","0.0-9.0-0.0-0.66","877","","j","","","","","","","","","","","","","key","j","16.665652892561937","768","428","./1_3_Stimuli/S_ambi40.png","他人","Image","他人","Match","j","true","Formal"
"","","","","","psychophysics","278","690737","0.0-9.0-0.0-0.67","657","","j","","","","","","","","","","","","","key","j","16.667120370370363","768","428","./1_3_Stimuli/S_ambi40.png","他人","Image","他人","Match","j","true","Formal"
"","","","","","psychophysics","279","692950","0.0-9.0-0.0-0.68","1060","","j","","","","","","","","","","","","","key","j","16.666549618320385","768","428","./1_3_Stimuli/T_ambi40.png","他人","Image","自我","Mismatch","f","false","Formal"
"","","","","","psychophysics","280","695022","0.0-9.0-0.0-0.69","921","","j","","","","","","","","","","","","","key","j","16.66602439024368","768","428","./1_3_Stimuli/S_ambi40.png","他人","Word","他人","Match","j","true","Formal"
"","","","","","psychophysics","281","697013","0.0-9.0-0.0-0.70","839","","f","","","","","","","","","","","","","key","f","16.666296610169674","768","428","./1_3_Stimuli/T_ambi40.png","朋友","Word","自我","Mismatch","f","true","Formal"
"","","","","","psychophysics","282","698686","0.0-9.0-0.0-0.71","519","","j","","","","","","","","","","","","","key","j","16.666530000000492","768","428","./1_3_Stimuli/C_ambi40.png","朋友","Image","朋友","Match","j","true","Formal"
"","","","","","psychophysics","283","700626","0.0-9.0-0.0-0.72","780","","f","","","","","","","","","","","","","key","f","16.66610434782671","768","428","./1_3_Stimuli/T_ambi40.png","他人","Word","自我","Mismatch","f","true","Formal"
"","","","","","psychophysics","284","702705","0.0-9.0-0.0-0.73","921","","j","","","","","","","","","","","","","key","j","16.666661290322324","768","428","./1_3_Stimuli/C_ambi40.png","朋友","Word","朋友","Match","j","true","Formal"
"","","","","","psychophysics","285","704537","0.0-9.0-0.0-0.74","674","","f","","","","","","","","","","","","","key","f","16.667275229357866","768","428","./1_3_Stimuli/S_ambi40.png","他人","Image","他人","Match","j","false","Formal"
"","","","","","psychophysics","286","706497","0.0-9.0-0.0-0.75","799","","f","","","","","","","","","","","","","key","f","16.665896551724693","768","428","./1_3_Stimuli/S_ambi40.png","自我","Image","他人","Mismatch","f","true","Formal"
"","","","","","psychophysics","287","708537","0.0-9.0-0.0-0.76","887","","f","","","","","","","","","","","","","key","f","16.66576229508195","768","428","./1_3_Stimuli/C_ambi40.png","他人","Image","朋友","Mismatch","f","true","Formal"
"","","","","","psychophysics","288","710361","0.0-9.0-0.0-0.77","662","","f","","","","","","","","","","","","","key","f","16.66646296296299","768","428","./1_3_Stimuli/T_ambi40.png","朋友","Word","自我","Mismatch","f","true","Formal"
"","","","","","psychophysics","289","712393","0.0-9.0-0.0-0.78","876","","j","","","","","","","","","","","","","key","j","16.666512396693623","768","428","./1_3_Stimuli/C_ambi40.png","朋友","Word","朋友","Match","j","true","Formal"
"","","","","","psychophysics","290","714105","0.0-9.0-0.0-0.79","555","","j","","","","","","","","","","","","","key","j","16.666480392157144","768","428","./1_3_Stimuli/C_ambi40.png","朋友","Image","朋友","Match","j","true","Formal"
"","","","","","psychophysics","291","715922","0.0-9.0-0.0-0.80","656","","f","","","","","","","","","","","","","key","f","16.666777777777664","768","428","./1_3_Stimuli/S_ambi40.png","朋友","Word","他人","Mismatch","f","true","Formal"
"","","","","","psychophysics","292","718089","0.0-9.0-0.0-0.81","1008","","f","","","","","","","","","","","","","key","f","16.66673643410823","768","428","./1_3_Stimuli/C_ambi40.png","自我","Image","朋友","Mismatch","f","true","Formal"
"","","","","","psychophysics","293","720081","0.0-9.0-0.0-0.82","833","","f","","","","","","","","","","","","","key","f","16.666499999999978","768","428","./1_3_Stimuli/T_ambi40.png","朋友","Image","自我","Mismatch","f","true","Formal"
"","","","","","psychophysics","294","721966","0.0-9.0-0.0-0.83","733","","f","","","","","","","","","","","","","key","f","16.66668468468449","768","428","./1_3_Stimuli/T_ambi40.png","他人","Image","自我","Mismatch","f","true","Formal"
"","","","","","psychophysics","295","723821","0.0-9.0-0.0-0.84","704","","f","","","","","","","","","","","","","key","f","16.66614545454504","768","428","./1_3_Stimuli/S_ambi40.png","自我","Word","他人","Mismatch","f","true","Formal"
"","","","","","psychophysics","296","725601","0.0-9.0-0.0-0.85","629","","j","","","","","","","","","","","","","key","j","16.66640566037704","768","428","./1_3_Stimuli/T_ambi40.png","自我","Image","自我","Match","j","true","Formal"
"","","","","","psychophysics","297","727582","0.0-9.0-0.0-0.86","816","","j","","","","","","","","","","","","","key","j","16.66673504273431","768","428","./1_3_Stimuli/T_ambi40.png","自我","Word","自我","Match","j","true","Formal"
"","","","","","psychophysics","298","729289","0.0-9.0-0.0-0.87","544","","j","","","","","","","","","","","","","key","j","16.666168316831065","768","428","./1_3_Stimuli/T_ambi40.png","自我","Word","自我","Match","j","true","Formal"
"","","","","","psychophysics","299","730969","0.0-9.0-0.0-0.88","520","","f","","","","","","","","","","","","","key","f","16.66579000000027","768","428","./1_3_Stimuli/S_ambi40.png","他人","Image","他人","Match","j","false","Formal"
"","","","","","psychophysics","300","732677","0.0-9.0-0.0-0.89","556","","j","","","","","","","","","","","","","key","j","16.667475247523967","768","428","./1_3_Stimuli/T_ambi40.png","自我","Image","自我","Match","j","true","Formal"
"","","","","","psychophysics","301","734461","0.0-9.0-0.0-0.90","628","","j","","","","","","","","","","","","","key","j","16.66601886792451","768","428","./1_3_Stimuli/C_ambi40.png","朋友","Image","朋友","Match","j","true","Formal"
"","","","","","psychophysics","302","736109","0.0-9.0-0.0-0.91","495","","j","","","","","","","","","","","","","key","j","16.667255102040254","768","428","./1_3_Stimuli/S_ambi40.png","他人","Word","他人","Match","j","true","Formal"
"","","","","","psychophysics","303","737918","0.0-9.0-0.0-0.92","654","","f","","","","","","","","","","","","","key","f","16.666083333333653","768","428","./1_3_Stimuli/C_ambi40.png","自我","Word","朋友","Mismatch","f","true","Formal"
"","","","","","psychophysics","304","740626","0.0-9.0-0.0-0.93","null","","null","","","","","","","","","","","","","key","null","16.667037267080993","768","428","./1_3_Stimuli/S_ambi40.png","朋友","Image","他人","Mismatch","f","false","Formal"
"","","","","","psychophysics","305","742761","0.0-9.0-0.0-0.94","979","","f","","","","","","","","","","","","","key","f","16.66718110236189","768","428","./1_3_Stimuli/C_ambi40.png","他人","Word","朋友","Mismatch","f","true","Formal"
"","","","","","psychophysics","306","744381","0.0-9.0-0.0-0.95","465","","f","","","","","","","","","","","","","key","f","16.84222105263095","768","428","./1_3_Stimuli/S_ambi40.png","他人","Word","他人","Match","j","false","Formal"
"","","","","","psychophysics","307","746529","0.0-9.0-0.0-0.96","997","","j","","","","","","","","","","","","","key","j","16.66598425196909","768","428","./1_3_Stimuli/S_ambi40.png","自我","Image","他人","Mismatch","f","false","Formal"
"","","","","","psychophysics","308","748541","0.0-9.0-0.0-0.97","859","","j","","","","","","","","","","","","","key","j","16.6673583333332","768","428","./1_3_Stimuli/C_ambi40.png","朋友","Word","朋友","Match","j","true","Formal"
"","","","","","psychophysics","309","750464","0.0-9.0-0.0-0.98","766","","f","","","","","","","","","","","","","key","f","16.66585087719304","768","428","./1_3_Stimuli/T_ambi40.png","他人","Image","自我","Mismatch","f","true","Formal"
"","","","","","psychophysics","310","752745","0.0-9.0-0.0-0.99","1129","","f","","","","","","","","","","","","","key","f","16.66691111111065","768","428","./1_3_Stimuli/T_ambi40.png","朋友","Word","自我","Mismatch","f","true","Formal"
"","","","","","psychophysics","311","754396","0.0-9.0-0.0-0.100","498","","j","","","","","","","","","","","","","key","j","16.666173469388088","768","428","./1_3_Stimuli/T_ambi40.png","自我","Image","自我","Match","j","true","Formal"
"","","","","","psychophysics","312","756569","0.0-9.0-0.0-0.101","1020","","f","","","","","","","","","","","","","key","f","16.666689922479918","768","428","./1_3_Stimuli/S_ambi40.png","他人","Image","他人","Match","j","false","Formal"
"","","","","","psychophysics","313","758693","0.0-9.0-0.0-0.102","969","","f","","","","","","","","","","","","","key","f","16.66653968254012","768","428","./1_3_Stimuli/C_ambi40.png","自我","Image","朋友","Mismatch","f","true","Formal"
"","","","","","psychophysics","314","760609","0.0-9.0-0.0-0.103","764","","f","","","","","","","","","","","","","key","f","16.66622807017605","768","428","./1_3_Stimuli/C_ambi40.png","朋友","Word","朋友","Match","j","false","Formal"
"","","","","","psychophysics","315","762774","0.0-9.0-0.0-0.104","1011","","f","","","","","","","","","","","","","key","f","16.66681395348815","768","428","./1_3_Stimuli/S_ambi40.png","朋友","Image","他人","Mismatch","f","true","Formal"
"","","","","","psychophysics","316","765041","0.0-9.0-0.0-0.105","1109","","j","","","","","","","","","","","","","key","j","16.66420000000012","768","428","./1_3_Stimuli/S_ambi40.png","他人","Word","他人","Match","j","true","Formal"
"","","","","","psychophysics","317","766953","0.0-9.0-0.0-0.106","759","","f","","","","","","","","","","","","","key","f","16.666736842105532","768","428","./1_3_Stimuli/C_ambi40.png","朋友","Image","朋友","Match","j","false","Formal"
"","","","","","psychophysics","318","769473","0.0-9.0-0.0-0.107","1358","","f","","","","","","","","","","","","","key","f","16.666026666667314","768","428","./1_3_Stimuli/C_ambi40.png","朋友","Image","朋友","Match","j","false","Formal"
"","","","","","psychophysics","319","771241","0.0-9.0-0.0-0.108","609","","j","","","","","","","","","","","","","key","j","16.666676190475535","768","428","./1_3_Stimuli/T_ambi40.png","自我","Word","自我","Match","j","true","Formal"
"","","","","","psychophysics","320","772933","0.0-9.0-0.0-0.109","536","","f","","","","","","","","","","","","","key","f","16.666623762376506","768","428","./1_3_Stimuli/S_ambi40.png","他人","Word","他人","Match","j","false","Formal"
"","","","","","psychophysics","321","774780","0.0-9.0-0.0-0.110","683","","f","","","","","","","","","","","","","key","f","16.66694495412884","768","428","./1_3_Stimuli/S_ambi40.png","朋友","Word","他人","Mismatch","f","true","Formal"
"","","","","","psychophysics","322","776573","0.0-9.0-0.0-0.111","640","","f","","","","","","","","","","","","","key","f","16.666822429907413","768","428","./1_3_Stimuli/C_ambi40.png","自我","Word","朋友","Mismatch","f","true","Formal"
"","","","","","psychophysics","323","778505","0.0-9.0-0.0-0.112","773","","j","","","","","","","","","","","","","key","j","16.666460869564553","768","428","./1_3_Stimuli/S_ambi40.png","他人","Image","他人","Match","j","true","Formal"
"","","","","","psychophysics","324","780605","0.0-9.0-0.0-0.113","940","","f","","","","","","","","","","","","","key","f","16.666583999999798","768","428","./1_3_Stimuli/T_ambi40.png","朋友","Image","自我","Mismatch","f","true","Formal"
"","","","","","psychophysics","325","782369","0.0-9.0-0.0-0.114","604","","j","","","","","","","","","","","","","key","j","16.666152380952344","768","428","./1_3_Stimuli/T_ambi40.png","自我","Image","自我","Match","j","true","Formal"
"","","","","","psychophysics","326","784625","0.0-9.0-0.0-0.115","1096","","j","","","","","","","","","","","","","key","j","16.666007462686533","768","428","./1_3_Stimuli/C_ambi40.png","他人","Image","朋友","Mismatch","f","false","Formal"
"","","","","","psychophysics","327","786308","0.0-9.0-0.0-0.116","527","","j","","","","","","","","","","","","","key","j","16.66637999999919","768","428","./1_3_Stimuli/T_ambi40.png","自我","Word","自我","Match","j","true","Formal"
"","","","","","psychophysics","328","788169","0.0-9.0-0.0-0.117","710","","f","","","","","","","","","","","","","key","f","16.665702702703065","768","428","./1_3_Stimuli/C_ambi40.png","他人","Word","朋友","Mismatch","f","true","Formal"
"","","","","","psychophysics","329","790100","0.0-9.0-0.0-0.118","773","","f","","","","","","","","","","","","","key","f","16.666860869564317","768","428","./1_3_Stimuli/S_ambi40.png","自我","Word","他人","Mismatch","f","true","Formal"
"","","","","","psychophysics","330","792077","0.0-9.0-0.0-0.119","817","","f","","","","","","","","","","","","","key","f","16.66575213675248","768","428","./1_3_Stimuli/T_ambi40.png","他人","Word","自我","Mismatch","f","true","Formal"
"","","","","","html-keyboard-response","331","794073","0.0-9.0-1.0","1995","<style>.context{color:white; font-size: 35px; line-height:40px}</style>                        <div><p class='context'>您正确回答了86% 的试次。</p><p class='context'>您的平均反应时为835毫秒。</p><p> <div style = 'color: green'><按任意键进入休息></div></p>"," ","","","","","","","","","","","","","","","","","","","","","","","","",""
"","","","","","html-button-response","332","835589","0.0-9.0-2.0","41513","
                  <p>您当前还剩余5组实验</p>
                  <p>现在是休息时间，当您结束休息后，您可以点击 结束休息 按钮 继续</p>
                  <p>建议休息时间还剩余<span id=""iii"">60</span>秒</p>","0","","","","","","","","","","","","","","","","","","","","","","","","",""
"","","","","","psychophysics","333","838298","0.0-9.0-0.1-0.120","null","","null","","","","","","","","","","","","","key","null","16.6674629629627","768","428","./1_3_Stimuli/S_ambi40.png","他人","Image","他人","Match","j","false","Formal"
"","","","","","psychophysics","334","840141","0.0-9.0-0.1-0.121","692","","j","","","","","","","","","","","","","key","j","16.666348623853057","768","428","./1_3_Stimuli/T_ambi40.png","自我","Image","自我","Match","j","true","Formal"
"","","","","","psychophysics","335","842076","0.0-9.0-0.1-0.122","779","","j","","","","","","","","","","","","","key","j","16.666330434782836","768","428","./1_3_Stimuli/C_ambi40.png","朋友","Image","朋友","Match","j","true","Formal"
"","","","","","psychophysics","336","843900","0.0-9.0-0.1-0.123","669","","f","","","","","","","","","","","","","key","f","16.66674311926648","768","428","./1_3_Stimuli/S_ambi40.png","自我","Image","他人","Mismatch","f","true","Formal"
"","","","","","psychophysics","337","845826","0.0-9.0-0.1-0.124","765","","j","","","","","","","","","","","","","key","j","16.66631578947438","768","428","./1_3_Stimuli/S_ambi40.png","他人","Word","他人","Match","j","true","Formal"
"","","","","","psychophysics","338","847588","0.0-9.0-0.1-0.125","607","","j","","","","","","","","","","","","","key","j","16.665638095238023","768","428","./1_3_Stimuli/S_ambi40.png","他人","Image","他人","Match","j","true","Formal"
"","","","","","psychophysics","339","849596","0.0-9.0-0.1-0.126","849","","f","","","","","","","","","","","","","key","f","16.667142857142974","768","428","./1_3_Stimuli/T_ambi40.png","朋友","Image","自我","Mismatch","f","true","Formal"
"","","","","","psychophysics","340","851241","0.0-9.0-0.1-0.127","494","","j","","","","","","","","","","","","","key","j","16.66721649484507","768","428","./1_3_Stimuli/T_ambi40.png","自我","Word","自我","Match","j","true","Formal"
"","","","","","psychophysics","341","853249","0.0-9.0-0.1-0.128","852","","f","","","","","","","","","","","","","key","f","16.66620000000015","768","428","./1_3_Stimuli/T_ambi40.png","他人","Word","自我","Mismatch","f","true","Formal"
"","","","","","psychophysics","342","855360","0.0-9.0-0.1-0.129","958","","j","","","","","","","","","","","","","key","j","16.666247999999673","768","428","./1_3_Stimuli/C_ambi40.png","朋友","Image","朋友","Match","j","true","Formal"
"","","","","","psychophysics","343","857221","0.0-9.0-0.1-0.130","708","","f","","","","","","","","","","","","","key","f","16.66687387387323","768","428","./1_3_Stimuli/C_ambi40.png","自我","Word","朋友","Mismatch","f","true","Formal"
"","","","","","psychophysics","344","859616","0.0-9.0-0.1-0.131","1236","","j","","","","","","","","","","","","","key","j","16.66606993007008","768","428","./1_3_Stimuli/S_ambi40.png","他人","Word","他人","Match","j","true","Formal"
"","","","","","psychophysics","345","861524","0.0-9.0-0.1-0.132","757","","f","","","","","","","","","","","","","key","f","16.66614159292014","768","428","./1_3_Stimuli/C_ambi40.png","自我","Image","朋友","Mismatch","f","true","Formal"
"","","","","","psychophysics","346","863572","0.0-9.0-0.1-0.133","894","","f","","","","","","","","","","","","","key","f","16.667196721311843","768","428","./1_3_Stimuli/C_ambi40.png","朋友","Word","朋友","Match","j","false","Formal"
"","","","","","psychophysics","347","865482","0.0-9.0-0.1-0.134","752","","f","","","","","","","","","","","","","key","f","16.666552631578636","768","428","./1_3_Stimuli/S_ambi40.png","朋友","Image","他人","Mismatch","f","true","Formal"
"","","","","","psychophysics","348","867352","0.0-9.0-0.1-0.135","708","","f","","","","","","","","","","","","","key","f","16.666882882882664","768","428","./1_3_Stimuli/S_ambi40.png","自我","Word","他人","Mismatch","f","true","Formal"
"","","","","","psychophysics","349","869352","0.0-9.0-0.1-0.136","839","","f","","","","","","","","","","","","","key","f","16.666663865546084","768","428","./1_3_Stimuli/C_ambi40.png","他人","Word","朋友","Mismatch","f","true","Formal"
"","","","","","psychophysics","350","871112","0.0-9.0-0.1-0.137","599","","f","","","","","","","","","","","","","key","f","16.665730769231093","768","428","./1_3_Stimuli/T_ambi40.png","他人","Image","自我","Mismatch","f","true","Formal"
"","","","","","psychophysics","351","872792","0.0-9.0-0.1-0.138","529","","f","","","","","","","","","","","","","key","f","16.66643434343389","768","428","./1_3_Stimuli/C_ambi40.png","他人","Image","朋友","Mismatch","f","true","Formal"
"","","","","","psychophysics","352","874428","0.0-9.0-0.1-0.139","482","","j","","","","","","","","","","","","","key","j","16.666690721649427","768","428","./1_3_Stimuli/T_ambi40.png","自我","Word","自我","Match","j","true","Formal"
"","","","","","psychophysics","353","876489","0.0-9.0-0.1-0.140","909","","f","","","","","","","","","","","","","key","f","16.66710655737695","768","428","./1_3_Stimuli/S_ambi40.png","朋友","Word","他人","Mismatch","f","true","Formal"
"","","","","","psychophysics","354","878420","0.0-9.0-0.1-0.141","780","","f","","","","","","","","","","","","","key","f","16.665756521738416","768","428","./1_3_Stimuli/T_ambi40.png","朋友","Word","自我","Mismatch","f","true","Formal"
"","","","","","psychophysics","355","880268","0.0-9.0-0.1-0.142","688","","j","","","","","","","","","","","","","key","j","16.666263636363542","768","428","./1_3_Stimuli/T_ambi40.png","自我","Image","自我","Match","j","true","Formal"
"","","","","","psychophysics","356","882445","0.0-9.0-0.1-0.143","1022","","j","","","","","","","","","","","","","key","j","16.666147286821403","768","428","./1_3_Stimuli/C_ambi40.png","朋友","Word","朋友","Match","j","true","Formal"
"","","","","","psychophysics","357","884340","0.0-9.0-0.1-0.144","744","","f","","","","","","","","","","","","","key","f","16.666285714286328","768","428","./1_3_Stimuli/S_ambi40.png","自我","Word","他人","Mismatch","f","true","Formal"
"","","","","","psychophysics","358","886464","0.0-9.0-0.1-0.145","970","","j","","","","","","","","","","","","","key","j","16.66694488188923","768","428","./1_3_Stimuli/C_ambi40.png","朋友","Word","朋友","Match","j","true","Formal"
"","","","","","psychophysics","359","888265","0.0-9.0-0.1-0.146","645","","j","","","","","","","","","","","","","key","j","16.665345794392888","768","428","./1_3_Stimuli/T_ambi40.png","自我","Image","自我","Match","j","true","Formal"
"","","","","","psychophysics","360","890281","0.0-9.0-0.1-0.147","855","","f","","","","","","","","","","","","","key","f","16.666408333332704","768","428","./1_3_Stimuli/T_ambi40.png","他人","Word","自我","Mismatch","f","true","Formal"
"","","","","","psychophysics","361","892468","0.0-9.0-0.1-0.148","1032","","f","","","","","","","","","","","","","key","f","16.6662230769235","768","428","./1_3_Stimuli/T_ambi40.png","朋友","Image","自我","Mismatch","f","true","Formal"
"","","","","","psychophysics","362","894240","0.0-9.0-0.1-0.149","620","","j","","","","","","","","","","","","","key","j","16.666038095238175","768","428","./1_3_Stimuli/T_ambi40.png","自我","Image","自我","Match","j","true","Formal"
"","","","","","psychophysics","363","896605","0.0-9.0-0.1-0.150","1210","","j","","","","","","","","","","","","","key","j","16.666957446808286","768","428","./1_3_Stimuli/S_ambi40.png","他人","Image","他人","Match","j","true","Formal"
"","","","","","psychophysics","364","898284","0.0-9.0-0.1-0.151","528","","j","","","","","","","","","","","","","key","j","16.666909999999916","768","428","./1_3_Stimuli/T_ambi40.png","自我","Word","自我","Match","j","true","Formal"
"","","","","","psychophysics","365","900624","0.0-9.0-0.1-0.152","1184","","f","","","","","","","","","","","","","key","f","16.666604316546312","768","428","./1_3_Stimuli/S_ambi40.png","他人","Word","他人","Match","j","false","Formal"
"","","","","","psychophysics","366","902425","0.0-9.0-0.1-0.153","646","","j","","","","","","","","","","","","","key","j","16.666177570094163","768","428","./1_3_Stimuli/S_ambi40.png","他人","Word","他人","Match","j","true","Formal"
"","","","","","psychophysics","367","904397","0.0-9.0-0.1-0.154","819","","f","","","","","","","","","","","","","key","f","16.665915254237113","768","428","./1_3_Stimuli/C_ambi40.png","自我","Image","朋友","Mismatch","f","true","Formal"
"","","","","","psychophysics","368","907068","0.0-9.0-0.1-0.155","1508","","f","","","","","","","","","","","","","key","f","16.666729559748486","768","428","./1_3_Stimuli/C_ambi40.png","自我","Word","朋友","Mismatch","f","true","Formal"
"","","","","","psychophysics","369","909216","0.0-9.0-0.1-0.156","996","","j","","","","","","","","","","","","","key","j","16.666945312499593","768","428","./1_3_Stimuli/C_ambi40.png","他人","Image","朋友","Mismatch","f","false","Formal"
"","","","","","psychophysics","370","911189","0.0-9.0-0.1-0.157","820","","f","","","","","","","","","","","","","key","f","16.666905982906403","768","428","./1_3_Stimuli/C_ambi40.png","朋友","Image","朋友","Match","j","false","Formal"
"","","","","","psychophysics","371","913896","0.0-9.0-0.1-0.158","null","","null","","","","","","","","","","","","","key","null","16.66640740740731","768","428","./1_3_Stimuli/C_ambi40.png","朋友","Image","朋友","Match","j","false","Formal"
"","","","","","psychophysics","372","915816","0.0-9.0-0.1-0.159","768","","f","","","","","","","","","","","","","key","f","16.66573684210501","768","428","./1_3_Stimuli/S_ambi40.png","朋友","Image","他人","Mismatch","f","true","Formal"
"","","","","","psychophysics","373","918525","0.0-9.0-0.1-0.160","null","","null","","","","","","","","","","","","","key","null","16.666478260870015","768","428","./1_3_Stimuli/S_ambi40.png","朋友","Word","他人","Mismatch","f","false","Formal"
"","","","","","psychophysics","374","920745","0.0-9.0-0.1-0.161","1067","","j","","","","","","","","","","","","","key","j","16.665924242424257","768","428","./1_3_Stimuli/C_ambi40.png","朋友","Word","朋友","Match","j","true","Formal"
"","","","","","psychophysics","375","923437","0.0-9.0-0.1-0.162","1541","","f","","","","","","","","","","","","","key","f","16.666674999999668","768","428","./1_3_Stimuli/T_ambi40.png","他人","Image","自我","Mismatch","f","true","Formal"
"","","","","","psychophysics","376","925520","0.0-9.0-0.1-0.163","929","","f","","","","","","","","","","","","","key","f","16.666290322580608","768","428","./1_3_Stimuli/S_ambi40.png","自我","Image","他人","Mismatch","f","true","Formal"
"","","","","","psychophysics","377","927845","0.0-9.0-0.1-0.164","1171","","j","","","","","","","","","","","","","key","j","16.666187050359543","768","428","./1_3_Stimuli/S_ambi40.png","他人","Image","他人","Match","j","true","Formal"
"","","","","","psychophysics","378","929888","0.0-9.0-0.1-0.165","892","","f","","","","","","","","","","","","","key","f","16.666421487603206","768","428","./1_3_Stimuli/C_ambi40.png","他人","Word","朋友","Mismatch","f","true","Formal"
"","","","","","psychophysics","379","931749","0.0-9.0-0.1-0.166","703","","j","","","","","","","","","","","","","key","j","16.6657837837838","768","428","./1_3_Stimuli/T_ambi40.png","自我","Word","自我","Match","j","true","Formal"
"","","","","","psychophysics","380","933677","0.0-9.0-0.1-0.167","764","","f","","","","","","","","","","","","","key","f","16.66587719298172","768","428","./1_3_Stimuli/T_ambi40.png","朋友","Word","自我","Mismatch","f","true","Formal"
"","","","","","psychophysics","381","935724","0.0-9.0-0.1-0.168","895","","f","","","","","","","","","","","","","key","f","16.666442622950676","768","428","./1_3_Stimuli/C_ambi40.png","他人","Word","朋友","Mismatch","f","true","Formal"
"","","","","","psychophysics","382","937864","0.0-9.0-0.1-0.169","986","","j","","","","","","","","","","","","","key","j","16.667031250000036","768","428","./1_3_Stimuli/S_ambi40.png","他人","Word","他人","Match","j","true","Formal"
"","","","","","psychophysics","383","939892","0.0-9.0-0.1-0.170","876","","f","","","","","","","","","","","","","key","f","16.666066666666303","768","428","./1_3_Stimuli/S_ambi40.png","自我","Image","他人","Mismatch","f","true","Formal"
"","","","","","psychophysics","384","942568","0.0-9.0-0.1-0.171","1522","","j","","","","","","","","","","","","","key","j","16.666306250000343","768","428","./1_3_Stimuli/C_ambi40.png","朋友","Image","朋友","Match","j","true","Formal"
"","","","","","psychophysics","385","944816","0.0-9.0-0.1-0.172","1097","","f","","","","","","","","","","","","","key","f","16.665992537313556","768","428","./1_3_Stimuli/T_ambi40.png","朋友","Image","自我","Mismatch","f","true","Formal"
"","","","","","psychophysics","386","946492","0.0-9.0-0.1-0.173","514","","j","","","","","","","","","","","","","key","j","16.66608080808003","768","428","./1_3_Stimuli/T_ambi40.png","自我","Word","自我","Match","j","true","Formal"
"","","","","","psychophysics","387","948456","0.0-9.0-0.1-0.174","811","","f","","","","","","","","","","","","","key","f","16.666034188033997","768","428","./1_3_Stimuli/T_ambi40.png","他人","Word","自我","Mismatch","f","true","Formal"
"","","","","","psychophysics","388","950508","0.0-9.0-0.1-0.175","897","","f","","","","","","","","","","","","","key","f","16.665934426230034","768","428","./1_3_Stimuli/C_ambi40.png","朋友","Image","朋友","Match","j","false","Formal"
"","","","","","psychophysics","389","952420","0.0-9.0-0.1-0.176","759","","f","","","","","","","","","","","","","key","f","16.665815789473097","768","428","./1_3_Stimuli/C_ambi40.png","自我","Image","朋友","Mismatch","f","true","Formal"
"","","","","","psychophysics","390","954404","0.0-9.0-0.1-0.177","825","","f","","","","","","","","","","","","","key","f","16.665288135593844","768","428","./1_3_Stimuli/T_ambi40.png","朋友","Word","自我","Mismatch","f","true","Formal"
"","","","","","psychophysics","391","956304","0.0-9.0-0.1-0.178","744","","f","","","","","","","","","","","","","key","f","16.665654867257","768","428","./1_3_Stimuli/S_ambi40.png","自我","Word","他人","Mismatch","f","true","Formal"
"","","","","","psychophysics","392","957980","0.0-9.0-0.1-0.179","519","","f","","","","","","","","","","","","","key","f","16.66679999999935","768","428","./1_3_Stimuli/S_ambi40.png","他人","Word","他人","Match","j","false","Formal"
"","","","","","psychophysics","393","959941","0.0-9.0-0.1-0.180","800","","f","","","","","","","","","","","","","key","f","16.667103448275533","768","428","./1_3_Stimuli/C_ambi40.png","自我","Word","朋友","Mismatch","f","true","Formal"
"","","","","","psychophysics","394","961825","0.0-9.0-0.1-0.181","730","","f","","","","","","","","","","","","","key","f","16.666125000000257","768","428","./1_3_Stimuli/T_ambi40.png","他人","Image","自我","Mismatch","f","true","Formal"
"","","","","","psychophysics","395","963908","0.0-9.0-0.1-0.182","929","","f","","","","","","","","","","","","","key","f","16.66628455284536","768","428","./1_3_Stimuli/S_ambi40.png","朋友","Image","他人","Mismatch","f","true","Formal"
"","","","","","psychophysics","396","965988","0.0-9.0-0.1-0.183","927","","j","","","","","","","","","","","","","key","j","16.666854838709227","768","428","./1_3_Stimuli/S_ambi40.png","他人","Image","他人","Match","j","true","Formal"
"","","","","","psychophysics","397","967873","0.0-9.0-0.1-0.184","728","","f","","","","","","","","","","","","","key","f","16.666794642856985","768","428","./1_3_Stimuli/C_ambi40.png","朋友","Word","朋友","Match","j","false","Formal"
"","","","","","psychophysics","398","969816","0.0-9.0-0.1-0.185","789","","f","","","","","","","","","","","","","key","f","16.66618965517284","768","428","./1_3_Stimuli/C_ambi40.png","他人","Image","朋友","Mismatch","f","true","Formal"
"","","","","","psychophysics","399","971498","0.0-9.0-0.1-0.186","525","","j","","","","","","","","","","","","","key","j","16.666489999999758","768","428","./1_3_Stimuli/T_ambi40.png","自我","Word","自我","Match","j","true","Formal"
"","","","","","psychophysics","400","973532","0.0-9.0-0.1-0.187","879","","j","","","","","","","","","","","","","key","j","16.66618181818188","768","428","./1_3_Stimuli/T_ambi40.png","自我","Image","自我","Match","j","true","Formal"
"","","","","","psychophysics","401","975140","0.0-9.0-0.1-0.188","449","","j","","","","","","","","","","","","","key","j","16.6669052631582","768","428","./1_3_Stimuli/T_ambi40.png","自我","Image","自我","Match","j","true","Formal"
"","","","","","psychophysics","402","977113","0.0-9.0-0.1-0.189","817","","j","","","","","","","","","","","","","key","j","16.666330508475383","768","428","./1_3_Stimuli/C_ambi40.png","朋友","Word","朋友","Match","j","true","Formal"
"","","","","","psychophysics","403","978762","0.0-9.0-0.1-0.190","495","","j","","","","","","","","","","","","","key","j","16.66746938775403","768","428","./1_3_Stimuli/S_ambi40.png","朋友","Word","他人","Mismatch","f","false","Formal"
"","","","","","psychophysics","404","980933","0.0-9.0-0.1-0.191","1013","","j","","","","","","","","","","","","","key","j","16.66672093023243","768","428","./1_3_Stimuli/S_ambi40.png","他人","Image","他人","Match","j","true","Formal"
"","","","","","psychophysics","405","982705","0.0-9.0-0.1-0.192","618","","j","","","","","","","","","","","","","key","j","16.666580952380208","768","428","./1_3_Stimuli/T_ambi40.png","朋友","Word","自我","Mismatch","f","false","Formal"
"","","","","","psychophysics","406","985411","0.0-9.0-0.1-0.193","null","","null","","","","","","","","","","","","","key","null","16.66538509316757","768","428","./1_3_Stimuli/S_ambi40.png","他人","Image","他人","Match","j","false","Formal"
"","","","","","psychophysics","407","987065","0.0-9.0-0.1-0.194","503","","j","","","","","","","","","","","","","key","j","16.66744897959217","768","428","./1_3_Stimuli/T_ambi40.png","自我","Word","自我","Match","j","true","Formal"
"","","","","","psychophysics","408","988914","0.0-9.0-0.1-0.195","698","","j","","","","","","","","","","","","","key","j","16.666054545454045","768","428","./1_3_Stimuli/C_ambi40.png","朋友","Image","朋友","Match","j","true","Formal"
"","","","","","psychophysics","409","990809","0.0-9.0-0.1-0.196","732","","f","","","","","","","","","","","","","key","f","16.66607142857226","768","428","./1_3_Stimuli/S_ambi40.png","朋友","Word","他人","Mismatch","f","true","Formal"
"","","","","","psychophysics","410","992672","0.0-9.0-0.1-0.197","711","","j","","","","","","","","","","","","","key","j","16.666261261260885","768","428","./1_3_Stimuli/S_ambi40.png","他人","Image","他人","Match","j","true","Formal"
"","","","","","psychophysics","411","995205","0.0-9.0-0.1-0.198","1382","","f","","","","","","","","","","","","","key","f","16.66652980132494","768","428","./1_3_Stimuli/T_ambi40.png","他人","Image","自我","Mismatch","f","true","Formal"
"","","","","","psychophysics","412","997368","0.0-9.0-0.1-0.199","1012","","f","","","","","","","","","","","","","key","f","16.666379844961153","768","428","./1_3_Stimuli/C_ambi40.png","他人","Word","朋友","Mismatch","f","true","Formal"
"","","","","","psychophysics","413","999053","0.0-9.0-0.1-0.200","525","","j","","","","","","","","","","","","","key","j","16.66560000000056","768","428","./1_3_Stimuli/C_ambi40.png","朋友","Image","朋友","Match","j","true","Formal"
"","","","","","psychophysics","414","1000865","0.0-9.0-0.1-0.201","654","","f","","","","","","","","","","","","","key","f","16.666898148148363","768","428","./1_3_Stimuli/C_ambi40.png","他人","Image","朋友","Mismatch","f","true","Formal"
"","","","","","psychophysics","415","1003578","0.0-9.0-0.1-0.202","null","","null","","","","","","","","","","","","","key","null","16.665839506173075","768","428","./1_3_Stimuli/S_ambi40.png","他人","Word","他人","Match","j","false","Formal"
"","","","","","psychophysics","416","1005577","0.0-9.0-0.1-0.203","849","","j","","","","","","","","","","","","","key","j","16.666991525423374","768","428","./1_3_Stimuli/C_ambi40.png","朋友","Word","朋友","Match","j","true","Formal"
"","","","","","psychophysics","417","1007325","0.0-9.0-0.1-0.204","597","","j","","","","","","","","","","","","","key","j","16.666893203882953","768","428","./1_3_Stimuli/C_ambi40.png","朋友","Word","朋友","Match","j","true","Formal"
"","","","","","psychophysics","418","1009469","0.0-9.0-0.1-0.205","990","","f","","","","","","","","","","","","","key","f","16.66643750000003","768","428","./1_3_Stimuli/C_ambi40.png","自我","Word","朋友","Mismatch","f","true","Formal"
"","","","","","psychophysics","419","1011333","0.0-9.0-0.1-0.206","706","","j","","","","","","","","","","","","","key","j","16.666117117117235","768","428","./1_3_Stimuli/T_ambi40.png","自我","Image","自我","Match","j","true","Formal"
"","","","","","psychophysics","420","1013714","0.0-9.0-0.1-0.207","1223","","f","","","","","","","","","","","","","key","f","16.66638732394433","768","428","./1_3_Stimuli/S_ambi40.png","朋友","Image","他人","Mismatch","f","true","Formal"
