"success","timeout","failed_images","failed_audio","failed_video","trial_type","trial_index","time_elapsed","internal_node_id","rt","stimulus","response","value","item_width_mm","item_height_mm","item_width_px","px2mm","view_dist_mm","item_width_deg","px2deg","scale_factor","win_width_deg","win_height_deg","view_history","response_type","key_press","avg_frame_time","center_x","center_y","image","word","target","valence","matchness","correct_response","correct","exp_condition"
"true","false","[]","[]","[]","preload","0","389","0.0-0.0","","","","","","","","","","","","","","","","","","","","","","","","","","","",""
"","","","","","html-keyboard-response","1","32888","0.0-1.0","32498","
     <p>您好，欢迎参加本次实验。</p>
     <p>为充分保障您的权利，请确保您已经知晓并同意《参与实验同意书》以及《数据公开知情同意书》。</p>
     <p>如果您未见过上述内容，请咨询实验员。</p>
     <p>如果您选择继续实验，则表示您已经清楚两份知情同意书的内容并同意。</p>
     <p> <div style = ""color: green""><按任意键至下页></div> </p>
     "," ","","","","","","","","","","","","","","","","","","","","","","","","",""
"","","","","","html-keyboard-response","2","34402","0.0-2.0-0.0","1513","
      <p>本实验首先需要您填写一些基本个人信息。</p>
      <p> <div style = ""color: green""><按任意键至下页></div></p>
      "," ","","","","","","","","","","","","","","","","","","","","","","","","",""
"","","","","","call-function","3","34402","0.0-2.0-1.0","","","","","","","","","","","","","","","","","","","","","","","","","","","",""
"","","","","","survey-html-form","4","54513","0.0-2.0-2.0","20109","","{""Q0"":""1003""}","","","","","","","","","","","","","","","","","","","","","","","","",""
"","","","","","html-button-response","5","55911","0.0-2.0-3.0","1397","<p style = 'color : white'>您的性别</p>","1","","","","","","","","","","","","","","","","","","","","","","","","",""
"","","","","","survey-html-form","6","67059","0.0-2.0-4.0","11147","","{""Q0"":""2003""}","","","","","","","","","","","","","","","","","","","","","","","","",""
"","","","","","survey-html-form","7","81249","0.0-2.0-5.0","14190","","{""Q0"":""5""}","","","","","","","","","","","","","","","","","","","","","","","","",""
"","","","","","virtual-chinrest","8","254880","0.0-3.0","173630","","","","85.6","53.98","428.4266737710922","5.005277481374468","571.32","8.568533475421845","50","0.9569899007246744","28.64","15.72","","","","","","","","","","","","","",""
"true","","","","","fullscreen","9","264289","0.0-4.0","","","","","","","","","","","","","","","","","","","","","","","","","","","",""
"","","","","","instructions","10","319248","0.0-5.0","54958","","","","","","","","","","","","","","[{""page_index"":0,""viewing_time"":21522},{""page_index"":1,""viewing_time"":17663},{""page_index"":2,""viewing_time"":12166},{""page_index"":3,""viewing_time"":3608}]","","","","","","","","","","","","",""
"","","","","","html-keyboard-response","11","322901","0.0-6.0","null","<count-down title=""""></count-down>","null","","","","","","","","","","","","","","","","","","","","","","","","",""
"","","","","","psychophysics","12","325618","0.0-7.0-0.0-0.0","null","","null","","","","","","","","","","","","","key","null","16.66431481481485","720","446","3_Stimuli/S_ambi40.png","自我","Word","他人","Mismatch","f","false","Practice"
"","","","","","html-keyboard-response","13","325932","0.0-7.0-0.0-1.0","null","<span class='add_' style='color:yellow; font-size: 70px;'> 太慢! </span>","null","","","","","","","","","","","","","","","","","","","","","","","","","feedback"
"","","","","","psychophysics","14","328634","0.0-7.0-0.0-0.1","null","","null","","","","","","","","","","","","","key","null","16.664167701863246","720","446","3_Stimuli/S_ambi40.png","他人","Image","他人","Match","j","false","Practice"
"","","","","","html-keyboard-response","15","328949","0.0-7.0-0.0-1.1","null","<span class='add_' style='color:yellow; font-size: 70px;'> 太慢! </span>","null","","","","","","","","","","","","","","","","","","","","","","","","","feedback"
"","","","","","psychophysics","16","330909","0.0-7.0-0.0-0.2","808","","j","","","","","","","","","","","","","key","j","16.664301724138003","720","446","3_Stimuli/T_ambi40.png","朋友","Word","朋友","Match","j","true","Practice"
"","","","","","html-keyboard-response","17","331212","0.0-7.0-0.0-1.2","null","<span style='color:GreenYellow; font-size: 70px;'>正确! </span>","null","","","","","","","","","","","","","","","","","","","","","","","","","feedback"
"","","","","","psychophysics","18","333258","0.0-7.0-0.0-0.3","894","","f","","","","","","","","","","","","","key","f","16.6640163934427","720","446","3_Stimuli/S_ambi40.png","他人","Word","他人","Match","j","false","Practice"
"","","","","","html-keyboard-response","19","333560","0.0-7.0-0.0-1.3","null","<span style='color:red; font-size: 70px;'>错误! </span>","null","","","","","","","","","","","","","","","","","","","","","","","","","feedback"
"","","","","","psychophysics","20","335708","0.0-7.0-0.0-0.4","995","","j","","","","","","","","","","","","","key","j","16.664531249999982","720","446","3_Stimuli/C_ambi40.png","自我","Image","自我","Match","j","true","Practice"
"","","","","","html-keyboard-response","21","336010","0.0-7.0-0.0-1.4","null","<span style='color:GreenYellow; font-size: 70px;'>正确! </span>","null","","","","","","","","","","","","","","","","","","","","","","","","","feedback"
"","","","","","psychophysics","22","338226","0.0-7.0-0.0-0.5","1060","","f","","","","","","","","","","","","","key","f","16.66430303030277","720","446","3_Stimuli/T_ambi40.png","朋友","Image","朋友","Match","j","false","Practice"
"","","","","","html-keyboard-response","23","338535","0.0-7.0-0.0-1.5","null","<span style='color:red; font-size: 70px;'>错误! </span>","null","","","","","","","","","","","","","","","","","","","","","","","","","feedback"
"","","","","","psychophysics","24","340694","0.0-7.0-0.0-0.6","995","","j","","","","","","","","","","","","","key","j","16.663898437499938","720","446","3_Stimuli/C_ambi40.png","他人","Word","自我","Mismatch","f","false","Practice"
"","","","","","html-keyboard-response","25","341003","0.0-7.0-0.0-1.6","null","<span style='color:red; font-size: 70px;'>错误! </span>","null","","","","","","","","","","","","","","","","","","","","","","","","","feedback"
"","","","","","psychophysics","26","343320","0.0-7.0-0.0-0.7","1155","","j","","","","","","","","","","","","","key","j","16.662898550724503","720","446","3_Stimuli/C_ambi40.png","自我","Word","自我","Match","j","true","Practice"
"","","","","","html-keyboard-response","27","343629","0.0-7.0-0.0-1.7","null","<span style='color:GreenYellow; font-size: 70px;'>正确! </span>","null","","","","","","","","","","","","","","","","","","","","","","","","","feedback"
"","","","","","psychophysics","28","345807","0.0-7.0-0.0-0.8","1026","","j","","","","","","","","","","","","","key","j","16.653984496124043","720","446","3_Stimuli/T_ambi40.png","朋友","Word","朋友","Match","j","true","Practice"
"","","","","","html-keyboard-response","29","346109","0.0-7.0-0.0-1.8","null","<span style='color:GreenYellow; font-size: 70px;'>正确! </span>","null","","","","","","","","","","","","","","","","","","","","","","","","","feedback"
"","","","","","psychophysics","30","348115","0.0-7.0-0.0-0.9","851","","f","","","","","","","","","","","","","key","f","16.66314876033041","720","446","3_Stimuli/C_ambi40.png","他人","Image","自我","Mismatch","f","true","Practice"
"","","","","","html-keyboard-response","31","348427","0.0-7.0-0.0-1.9","null","<span style='color:GreenYellow; font-size: 70px;'>正确! </span>","null","","","","","","","","","","","","","","","","","","","","","","","","","feedback"
"","","","","","psychophysics","32","350188","0.0-7.0-0.0-0.10","608","","j","","","","","","","","","","","","","key","j","16.655750000000317","720","446","3_Stimuli/C_ambi40.png","自我","Image","自我","Match","j","true","Practice"
"","","","","","html-keyboard-response","33","350494","0.0-7.0-0.0-1.10","null","<span style='color:GreenYellow; font-size: 70px;'>正确! </span>","null","","","","","","","","","","","","","","","","","","","","","","","","","feedback"
"","","","","","psychophysics","34","352415","0.0-7.0-0.0-0.11","768","","f","","","","","","","","","","","","","key","f","16.808504347826112","720","446","3_Stimuli/C_ambi40.png","朋友","Word","自我","Mismatch","f","true","Practice"
"","","","","","html-keyboard-response","35","352725","0.0-7.0-0.0-1.11","null","<span style='color:GreenYellow; font-size: 70px;'>正确! </span>","null","","","","","","","","","","","","","","","","","","","","","","","","","feedback"
"","","","","","psychophysics","36","355102","0.0-7.0-0.0-0.12","1223","","j","","","","","","","","","","","","","key","j","16.662601398601655","720","446","3_Stimuli/T_ambi40.png","朋友","Image","朋友","Match","j","true","Practice"
"","","","","","html-keyboard-response","37","355416","0.0-7.0-0.0-1.12","null","<span style='color:GreenYellow; font-size: 70px;'>正确! </span>","null","","","","","","","","","","","","","","","","","","","","","","","","","feedback"
"","","","","","psychophysics","38","357159","0.0-7.0-0.0-0.13","586","","j","","","","","","","","","","","","","key","j","16.663514563106837","720","446","3_Stimuli/S_ambi40.png","他人","Word","他人","Match","j","true","Practice"
"","","","","","html-keyboard-response","39","357476","0.0-7.0-0.0-1.13","null","<span style='color:GreenYellow; font-size: 70px;'>正确! </span>","null","","","","","","","","","","","","","","","","","","","","","","","","","feedback"
"","","","","","psychophysics","40","359080","0.0-7.0-0.0-0.14","452","","j","","","","","","","","","","","","","key","j","16.83812500000022","720","446","3_Stimuli/S_ambi40.png","朋友","Image","他人","Mismatch","f","false","Practice"
"","","","","","html-keyboard-response","41","359385","0.0-7.0-0.0-1.14","null","<span style='color:red; font-size: 70px;'>错误! </span>","null","","","","","","","","","","","","","","","","","","","","","","","","","feedback"
"","","","","","psychophysics","42","362090","0.0-7.0-0.0-0.15","null","","null","","","","","","","","","","","","","key","null","16.76745962732911","720","446","3_Stimuli/T_ambi40.png","他人","Image","朋友","Mismatch","f","false","Practice"
"","","","","","html-keyboard-response","43","362401","0.0-7.0-0.0-1.15","null","<span class='add_' style='color:yellow; font-size: 70px;'> 太慢! </span>","null","","","","","","","","","","","","","","","","","","","","","","","","","feedback"
"","","","","","psychophysics","44","364193","0.0-7.0-0.0-0.16","632","","j","","","","","","","","","","","","","key","j","16.66450943396249","720","446","3_Stimuli/C_ambi40.png","自我","Word","自我","Match","j","true","Practice"
"","","","","","html-keyboard-response","45","364497","0.0-7.0-0.0-1.16","null","<span style='color:GreenYellow; font-size: 70px;'>正确! </span>","null","","","","","","","","","","","","","","","","","","","","","","","","","feedback"
"","","","","","psychophysics","46","366732","0.0-7.0-0.0-0.17","1080","","f","","","","","","","","","","","","","key","f","16.663604477611578","720","446","3_Stimuli/S_ambi40.png","自我","Image","他人","Mismatch","f","true","Practice"
"","","","","","html-keyboard-response","47","367038","0.0-7.0-0.0-1.17","null","<span style='color:GreenYellow; font-size: 70px;'>正确! </span>","null","","","","","","","","","","","","","","","","","","","","","","","","","feedback"
"","","","","","psychophysics","48","369424","0.0-7.0-0.0-0.18","1233","","j","","","","","","","","","","","","","key","j","16.663958041958015","720","446","3_Stimuli/S_ambi40.png","朋友","Word","他人","Mismatch","f","false","Practice"
"","","","","","html-keyboard-response","49","369729","0.0-7.0-0.0-1.18","null","<span style='color:red; font-size: 70px;'>错误! </span>","null","","","","","","","","","","","","","","","","","","","","","","","","","feedback"
"","","","","","psychophysics","50","372051","0.0-7.0-0.0-0.19","1163","","f","","","","","","","","","","","","","key","f","16.66480434782621","720","446","3_Stimuli/S_ambi40.png","他人","Image","他人","Match","j","false","Practice"
"","","","","","html-keyboard-response","51","372365","0.0-7.0-0.0-1.19","null","<span style='color:red; font-size: 70px;'>错误! </span>","null","","","","","","","","","","","","","","","","","","","","","","","","","feedback"
"","","","","","psychophysics","52","374162","0.0-7.0-0.0-0.20","644","","f","","","","","","","","","","","","","key","f","16.662055555555895","720","446","3_Stimuli/T_ambi40.png","自我","Word","朋友","Mismatch","f","true","Practice"
"","","","","","html-keyboard-response","53","374467","0.0-7.0-0.0-1.20","null","<span style='color:GreenYellow; font-size: 70px;'>正确! </span>","null","","","","","","","","","","","","","","","","","","","","","","","","","feedback"
"","","","","","psychophysics","54","376784","0.0-7.0-0.0-0.21","1165","","f","","","","","","","","","","","","","key","f","16.663413043478098","720","446","3_Stimuli/T_ambi40.png","自我","Image","朋友","Mismatch","f","true","Practice"
"","","","","","html-keyboard-response","55","377092","0.0-7.0-0.0-1.21","null","<span style='color:GreenYellow; font-size: 70px;'>正确! </span>","null","","","","","","","","","","","","","","","","","","","","","","","","","feedback"
"","","","","","psychophysics","56","379446","0.0-7.0-0.0-0.22","1203","","j","","","","","","","","","","","","","key","j","16.664269503545764","720","446","3_Stimuli/C_ambi40.png","朋友","Image","自我","Mismatch","f","false","Practice"
"","","","","","html-keyboard-response","57","379753","0.0-7.0-0.0-1.22","null","<span style='color:red; font-size: 70px;'>错误! </span>","null","","","","","","","","","","","","","","","","","","","","","","","","","feedback"
"","","","","","psychophysics","58","381817","0.0-7.0-0.0-0.23","912","","f","","","","","","","","","","","","","key","f","16.66447967479651","720","446","3_Stimuli/T_ambi40.png","他人","Word","朋友","Mismatch","f","true","Practice"
"","","","","","html-keyboard-response","59","382122","0.0-7.0-0.0-1.23","null","<span style='color:GreenYellow; font-size: 70px;'>正确! </span>","null","","","","","","","","","","","","","","","","","","","","","","","","","feedback"
"","","","","","html-keyboard-response","60","386022","0.0-7.0-1.0-0.0","3898","<style>.context{color:white; font-size: 35px; line-height:40px}</style>                        <div><p class='context'>您正确回答了58% 的试次。</p><p class='context'>您的平均反应时为890毫秒。</p><p> <div style = 'color: green'><按空格键至下页></div></p>"," ","","","","","","","","","","","","","","","","","","","","","","","","",""
"","","","","","instructions","61","481124","0.0-7.0-1.0-1.0","95101","","","","","","","","","","","","","","[{""page_index"":0,""viewing_time"":1953},{""page_index"":1,""viewing_time"":90836},{""page_index"":2,""viewing_time"":2311}]","","","","","","","","","","","","",""
"","","","","","psychophysics","62","482872","0.0-7.1-0.1-0.24","595","","j","","","","","","","","","","","","","key","j","16.65420388349488","720","446","3_Stimuli/C_ambi40.png","自我","Word","自我","Match","j","true","Practice"
"","","","","","html-keyboard-response","63","483182","0.0-7.1-0.1-1.24","null","<span style='color:GreenYellow; font-size: 70px;'>正确! </span>","null","","","","","","","","","","","","","","","","","","","","","","","","","feedback"
"","","","","","psychophysics","64","484950","0.0-7.1-0.1-0.25","609","","f","","","","","","","","","","","","","key","f","16.66259999999976","720","446","3_Stimuli/S_ambi40.png","他人","Word","他人","Match","j","false","Practice"
"","","","","","html-keyboard-response","65","485252","0.0-7.1-0.1-1.25","null","<span style='color:red; font-size: 70px;'>错误! </span>","null","","","","","","","","","","","","","","","","","","","","","","","","","feedback"
"","","","","","psychophysics","66","487062","0.0-7.1-0.1-0.26","652","","j","","","","","","","","","","","","","key","j","16.664513761467628","720","446","3_Stimuli/S_ambi40.png","他人","Word","他人","Match","j","true","Practice"
"","","","","","html-keyboard-response","67","487375","0.0-7.1-0.1-1.26","null","<span style='color:GreenYellow; font-size: 70px;'>正确! </span>","null","","","","","","","","","","","","","","","","","","","","","","","","","feedback"
"","","","","","psychophysics","68","489304","0.0-7.1-0.1-0.27","778","","f","","","","","","","","","","","","","key","f","16.664500000000228","720","446","3_Stimuli/T_ambi40.png","他人","Image","朋友","Mismatch","f","true","Practice"
"","","","","","html-keyboard-response","69","489611","0.0-7.1-0.1-1.27","null","<span style='color:GreenYellow; font-size: 70px;'>正确! </span>","null","","","","","","","","","","","","","","","","","","","","","","","","","feedback"
"","","","","","psychophysics","70","491408","0.0-7.1-0.1-0.28","633","","j","","","","","","","","","","","","","key","j","16.662616822430124","720","446","3_Stimuli/T_ambi40.png","自我","Image","朋友","Mismatch","f","false","Practice"
"","","","","","html-keyboard-response","71","491716","0.0-7.1-0.1-1.28","null","<span style='color:red; font-size: 70px;'>错误! </span>","null","","","","","","","","","","","","","","","","","","","","","","","","","feedback"
"","","","","","psychophysics","72","493622","0.0-7.1-0.1-0.29","746","","f","","","","","","","","","","","","","key","f","16.66446017699143","720","446","3_Stimuli/S_ambi40.png","自我","Word","他人","Mismatch","f","true","Practice"
"","","","","","html-keyboard-response","73","493926","0.0-7.1-0.1-1.29","null","<span style='color:GreenYellow; font-size: 70px;'>正确! </span>","null","","","","","","","","","","","","","","","","","","","","","","","","","feedback"
"","","","","","psychophysics","74","495694","0.0-7.1-0.1-0.30","611","","j","","","","","","","","","","","","","key","j","16.82320952380985","720","446","3_Stimuli/C_ambi40.png","自我","Word","自我","Match","j","true","Practice"
"","","","","","html-keyboard-response","75","496009","0.0-7.1-0.1-1.30","null","<span style='color:GreenYellow; font-size: 70px;'>正确! </span>","null","","","","","","","","","","","","","","","","","","","","","","","","","feedback"
"","","","","","psychophysics","76","497846","0.0-7.1-0.1-0.31","685","","f","","","","","","","","","","","","","key","f","16.663327272726878","720","446","3_Stimuli/T_ambi40.png","自我","Word","朋友","Mismatch","f","true","Practice"
"","","","","","html-keyboard-response","77","498148","0.0-7.1-0.1-1.31","null","<span style='color:GreenYellow; font-size: 70px;'>正确! </span>","null","","","","","","","","","","","","","","","","","","","","","","","","","feedback"
"","","","","","psychophysics","78","499951","0.0-7.1-0.1-0.32","644","","f","","","","","","","","","","","","","key","f","16.662953271027916","720","446","3_Stimuli/T_ambi40.png","他人","Word","朋友","Mismatch","f","true","Practice"
"","","","","","html-keyboard-response","79","500259","0.0-7.1-0.1-1.32","null","<span style='color:GreenYellow; font-size: 70px;'>正确! </span>","null","","","","","","","","","","","","","","","","","","","","","","","","","feedback"
"","","","","","psychophysics","80","501993","0.0-7.1-0.1-0.33","572","","f","","","","","","","","","","","","","key","f","16.665115384615582","720","446","3_Stimuli/T_ambi40.png","朋友","Word","朋友","Match","j","false","Practice"
"","","","","","html-keyboard-response","81","502307","0.0-7.1-0.1-1.33","null","<span style='color:red; font-size: 70px;'>错误! </span>","null","","","","","","","","","","","","","","","","","","","","","","","","","feedback"
"","","","","","psychophysics","82","504493","0.0-7.1-0.1-0.34","1023","","f","","","","","","","","","","","","","key","f","16.663251908396937","720","446","3_Stimuli/S_ambi40.png","朋友","Image","他人","Mismatch","f","true","Practice"
"","","","","","html-keyboard-response","83","504809","0.0-7.1-0.1-1.34","null","<span style='color:GreenYellow; font-size: 70px;'>正确! </span>","null","","","","","","","","","","","","","","","","","","","","","","","","","feedback"
"","","","","","psychophysics","84","506742","0.0-7.1-0.1-0.35","771","","f","","","","","","","","","","","","","key","f","16.665094827586316","720","446","3_Stimuli/C_ambi40.png","朋友","Word","自我","Mismatch","f","true","Practice"
"","","","","","html-keyboard-response","85","507051","0.0-7.1-0.1-1.35","null","<span style='color:GreenYellow; font-size: 70px;'>正确! </span>","null","","","","","","","","","","","","","","","","","","","","","","","","","feedback"
"","","","","","psychophysics","86","509131","0.0-7.1-0.1-0.36","928","","j","","","","","","","","","","","","","key","j","16.664120967742132","720","446","3_Stimuli/S_ambi40.png","他人","Image","他人","Match","j","true","Practice"
"","","","","","html-keyboard-response","87","509442","0.0-7.1-0.1-1.36","null","<span style='color:GreenYellow; font-size: 70px;'>正确! </span>","null","","","","","","","","","","","","","","","","","","","","","","","","","feedback"
"","","","","","psychophysics","88","511296","0.0-7.1-0.1-0.37","690","","f","","","","","","","","","","","","","key","f","16.664360360360416","720","446","3_Stimuli/S_ambi40.png","朋友","Word","他人","Mismatch","f","true","Practice"
"","","","","","html-keyboard-response","89","511600","0.0-7.1-0.1-1.37","null","<span style='color:GreenYellow; font-size: 70px;'>正确! </span>","null","","","","","","","","","","","","","","","","","","","","","","","","","feedback"
"","","","","","psychophysics","90","513599","0.0-7.1-0.1-0.38","844","","f","","","","","","","","","","","","","key","f","16.66462184873971","720","446","3_Stimuli/S_ambi40.png","自我","Image","他人","Mismatch","f","true","Practice"
"","","","","","html-keyboard-response","91","513906","0.0-7.1-0.1-1.38","null","<span style='color:GreenYellow; font-size: 70px;'>正确! </span>","null","","","","","","","","","","","","","","","","","","","","","","","","","feedback"
"","","","","","psychophysics","92","515776","0.0-7.1-0.1-0.39","705","","f","","","","","","","","","","","","","key","f","16.663303571428905","720","446","3_Stimuli/C_ambi40.png","他人","Word","自我","Mismatch","f","true","Practice"
"","","","","","html-keyboard-response","93","516077","0.0-7.1-0.1-1.39","null","<span style='color:GreenYellow; font-size: 70px;'>正确! </span>","null","","","","","","","","","","","","","","","","","","","","","","","","","feedback"
"","","","","","psychophysics","94","517765","0.0-7.1-0.1-0.40","528","","f","","","","","","","","","","","","","key","f","16.664425742574437","720","446","3_Stimuli/C_ambi40.png","他人","Image","自我","Mismatch","f","true","Practice"
"","","","","","html-keyboard-response","95","518079","0.0-7.1-0.1-1.40","null","<span style='color:GreenYellow; font-size: 70px;'>正确! </span>","null","","","","","","","","","","","","","","","","","","","","","","","","","feedback"
"","","","","","psychophysics","96","520406","0.0-7.1-0.1-0.41","1169","","j","","","","","","","","","","","","","key","j","16.663179856115324","720","446","3_Stimuli/T_ambi40.png","朋友","Word","朋友","Match","j","true","Practice"
"","","","","","html-keyboard-response","97","520712","0.0-7.1-0.1-1.41","null","<span style='color:GreenYellow; font-size: 70px;'>正确! </span>","null","","","","","","","","","","","","","","","","","","","","","","","","","feedback"
"","","","","","psychophysics","98","522668","0.0-7.1-0.1-0.42","797","","j","","","","","","","","","","","","","key","j","16.664188034188214","720","446","3_Stimuli/T_ambi40.png","朋友","Image","朋友","Match","j","true","Practice"
"","","","","","html-keyboard-response","99","522971","0.0-7.1-0.1-1.42","null","<span style='color:GreenYellow; font-size: 70px;'>正确! </span>","null","","","","","","","","","","","","","","","","","","","","","","","","","feedback"
"","","","","","psychophysics","100","524597","0.0-7.1-0.1-0.43","475","","f","","","","","","","","","","","","","key","f","16.663783505154516","720","446","3_Stimuli/C_ambi40.png","自我","Image","自我","Match","j","false","Practice"
"","","","","","html-keyboard-response","101","524911","0.0-7.1-0.1-1.43","null","<span style='color:red; font-size: 70px;'>错误! </span>","null","","","","","","","","","","","","","","","","","","","","","","","","","feedback"
"","","","","","psychophysics","102","526716","0.0-7.1-0.1-0.44","647","","f","","","","","","","","","","","","","key","f","16.664822429907073","720","446","3_Stimuli/C_ambi40.png","朋友","Image","自我","Mismatch","f","true","Practice"
"","","","","","html-keyboard-response","103","527025","0.0-7.1-0.1-1.44","null","<span style='color:GreenYellow; font-size: 70px;'>正确! </span>","null","","","","","","","","","","","","","","","","","","","","","","","","","feedback"
"","","","","","psychophysics","104","529154","0.0-7.1-0.1-0.45","969","","f","","","","","","","","","","","","","key","f","16.663710937499673","720","446","3_Stimuli/S_ambi40.png","他人","Image","他人","Match","j","false","Practice"
"","","","","","html-keyboard-response","105","529466","0.0-7.1-0.1-1.45","null","<span style='color:red; font-size: 70px;'>错误! </span>","null","","","","","","","","","","","","","","","","","","","","","","","","","feedback"
"","","","","","psychophysics","106","531218","0.0-7.1-0.1-0.46","600","","f","","","","","","","","","","","","","key","f","16.664846153845875","720","446","3_Stimuli/T_ambi40.png","朋友","Image","朋友","Match","j","false","Practice"
"","","","","","html-keyboard-response","107","531530","0.0-7.1-0.1-1.46","null","<span style='color:red; font-size: 70px;'>错误! </span>","null","","","","","","","","","","","","","","","","","","","","","","","","","feedback"
"","","","","","psychophysics","108","533277","0.0-7.1-0.1-0.47","593","","j","","","","","","","","","","","","","key","j","16.6648476190477","720","446","3_Stimuli/C_ambi40.png","自我","Image","自我","Match","j","true","Practice"
"","","","","","html-keyboard-response","109","533588","0.0-7.1-0.1-1.47","null","<span style='color:GreenYellow; font-size: 70px;'>正确! </span>","null","","","","","","","","","","","","","","","","","","","","","","","","","feedback"
"","","","","","html-keyboard-response","110","537409","0.0-7.1-1.1-0.1","3821","<style>.context{color:white; font-size: 35px; line-height:40px}</style>                        <div><p class='context'>您正确回答了75% 的试次。</p><p class='context'>您的平均反应时为745毫秒。</p><p> <div style = 'color: green'><按空格键至下页></div></p>"," ","","","","","","","","","","","","","","","","","","","","","","","","",""
"","","","","","instructions","111","570232","0.0-7.1-1.1-1.1","32822","","","","","","","","","","","","","","[{""page_index"":0,""viewing_time"":5907},{""page_index"":1,""viewing_time"":6324},{""page_index"":2,""viewing_time"":10884},{""page_index"":1,""viewing_time"":8144},{""page_index"":2,""viewing_time"":1562}]","","","","","","","","","","","","",""
"","","","","","psychophysics","112","572176","0.0-7.2-0.2-0.48","787","","j","","","","","","","","","","","","","key","j","16.663853448275717","720","446","3_Stimuli/T_ambi40.png","朋友","Image","朋友","Match","j","true","Practice"
"","","","","","html-keyboard-response","113","572486","0.0-7.2-0.2-1.48","null","<span style='color:GreenYellow; font-size: 70px;'>正确! </span>","null","","","","","","","","","","","","","","","","","","","","","","","","","feedback"
"","","","","","psychophysics","114","574273","0.0-7.2-0.2-0.49","637","","j","","","","","","","","","","","","","key","j","16.819719626167878","720","446","3_Stimuli/T_ambi40.png","朋友","Word","朋友","Match","j","true","Practice"
"","","","","","html-keyboard-response","115","574583","0.0-7.2-0.2-1.49","null","<span style='color:GreenYellow; font-size: 70px;'>正确! </span>","null","","","","","","","","","","","","","","","","","","","","","","","","","feedback"
"","","","","","psychophysics","116","576368","0.0-7.2-0.2-0.50","630","","f","","","","","","","","","","","","","key","f","16.66476415094309","720","446","3_Stimuli/C_ambi40.png","他人","Image","自我","Mismatch","f","true","Practice"
"","","","","","html-keyboard-response","117","576678","0.0-7.2-0.2-1.50","null","<span style='color:GreenYellow; font-size: 70px;'>正确! </span>","null","","","","","","","","","","","","","","","","","","","","","","","","","feedback"
"","","","","","psychophysics","118","578500","0.0-7.2-0.2-0.51","668","","f","","","","","","","","","","","","","key","f","16.66453211009182","720","446","3_Stimuli/T_ambi40.png","自我","Word","朋友","Mismatch","f","true","Practice"
"","","","","","html-keyboard-response","119","578810","0.0-7.2-0.2-1.51","null","<span style='color:GreenYellow; font-size: 70px;'>正确! </span>","null","","","","","","","","","","","","","","","","","","","","","","","","","feedback"
"","","","","","psychophysics","120","580783","0.0-7.2-0.2-0.52","812","","f","","","","","","","","","","","","","key","f","16.664427350427452","720","446","3_Stimuli/S_ambi40.png","朋友","Image","他人","Mismatch","f","true","Practice"
"","","","","","html-keyboard-response","121","581087","0.0-7.2-0.2-1.52","null","<span style='color:GreenYellow; font-size: 70px;'>正确! </span>","null","","","","","","","","","","","","","","","","","","","","","","","","","feedback"
"","","","","","psychophysics","122","582986","0.0-7.2-0.2-0.53","748","","f","","","","","","","","","","","","","key","f","16.663991071428295","720","446","3_Stimuli/T_ambi40.png","他人","Image","朋友","Mismatch","f","true","Practice"
"","","","","","html-keyboard-response","123","583302","0.0-7.2-0.2-1.53","null","<span style='color:GreenYellow; font-size: 70px;'>正确! </span>","null","","","","","","","","","","","","","","","","","","","","","","","","","feedback"
"","","","","","psychophysics","124","585160","0.0-7.2-0.2-0.54","706","","f","","","","","","","","","","","","","key","f","16.655299999999855","720","446","3_Stimuli/C_ambi40.png","朋友","Word","自我","Mismatch","f","true","Practice"
"","","","","","html-keyboard-response","125","585475","0.0-7.2-0.2-1.54","null","<span style='color:GreenYellow; font-size: 70px;'>正确! </span>","null","","","","","","","","","","","","","","","","","","","","","","","","","feedback"
"","","","","","psychophysics","126","587548","0.0-7.2-0.2-0.55","912","","j","","","","","","","","","","","","","key","j","16.66466129032215","720","446","3_Stimuli/T_ambi40.png","朋友","Word","朋友","Match","j","true","Practice"
"","","","","","html-keyboard-response","127","587853","0.0-7.2-0.2-1.55","null","<span style='color:GreenYellow; font-size: 70px;'>正确! </span>","null","","","","","","","","","","","","","","","","","","","","","","","","","feedback"
"","","","","","psychophysics","128","589589","0.0-7.2-0.2-0.56","586","","f","","","","","","","","","","","","","key","f","16.66443689320422","720","446","3_Stimuli/C_ambi40.png","他人","Word","自我","Mismatch","f","true","Practice"
"","","","","","html-keyboard-response","129","589903","0.0-7.2-0.2-1.56","null","<span style='color:GreenYellow; font-size: 70px;'>正确! </span>","null","","","","","","","","","","","","","","","","","","","","","","","","","feedback"
"","","","","","psychophysics","130","591634","0.0-7.2-0.2-0.57","581","","f","","","","","","","","","","","","","key","f","16.663912621358392","720","446","3_Stimuli/S_ambi40.png","自我","Word","他人","Mismatch","f","true","Practice"
"","","","","","html-keyboard-response","131","591943","0.0-7.2-0.2-1.57","null","<span style='color:GreenYellow; font-size: 70px;'>正确! </span>","null","","","","","","","","","","","","","","","","","","","","","","","","","feedback"
"","","","","","psychophysics","132","593791","0.0-7.2-0.2-0.58","688","","j","","","","","","","","","","","","","key","j","16.664288288288592","720","446","3_Stimuli/C_ambi40.png","自我","Word","自我","Match","j","true","Practice"
"","","","","","html-keyboard-response","133","594098","0.0-7.2-0.2-1.58","null","<span style='color:GreenYellow; font-size: 70px;'>正确! </span>","null","","","","","","","","","","","","","","","","","","","","","","","","","feedback"
"","","","","","psychophysics","134","596221","0.0-7.2-0.2-0.59","970","","f","","","","","","","","","","","","","key","f","16.79736507936503","720","446","3_Stimuli/S_ambi40.png","朋友","Word","他人","Mismatch","f","true","Practice"
"","","","","","html-keyboard-response","135","596535","0.0-7.2-0.2-1.59","null","<span style='color:GreenYellow; font-size: 70px;'>正确! </span>","null","","","","","","","","","","","","","","","","","","","","","","","","","feedback"
"","","","","","psychophysics","136","598282","0.0-7.2-0.2-0.60","586","","j","","","","","","","","","","","","","key","j","16.662456310679683","720","446","3_Stimuli/C_ambi40.png","自我","Word","自我","Match","j","true","Practice"
"","","","","","html-keyboard-response","137","598585","0.0-7.2-0.2-1.60","null","<span style='color:GreenYellow; font-size: 70px;'>正确! </span>","null","","","","","","","","","","","","","","","","","","","","","","","","","feedback"
"","","","","","psychophysics","138","600813","0.0-7.2-0.2-0.61","1078","","f","","","","","","","","","","","","","key","f","16.664045112781732","720","446","3_Stimuli/S_ambi40.png","他人","Image","他人","Match","j","false","Practice"
"","","","","","html-keyboard-response","139","601125","0.0-7.2-0.2-1.61","null","<span style='color:red; font-size: 70px;'>错误! </span>","null","","","","","","","","","","","","","","","","","","","","","","","","","feedback"
"","","","","","psychophysics","140","602780","0.0-7.2-0.2-0.62","496","","j","","","","","","","","","","","","","key","j","16.663595959595924","720","446","3_Stimuli/C_ambi40.png","自我","Image","自我","Match","j","true","Practice"
"","","","","","html-keyboard-response","141","603081","0.0-7.2-0.2-1.62","null","<span style='color:GreenYellow; font-size: 70px;'>正确! </span>","null","","","","","","","","","","","","","","","","","","","","","","","","","feedback"
"","","","","","psychophysics","142","604687","0.0-7.2-0.2-0.63","453","","j","","","","","","","","","","","","","key","j","16.66433333333407","720","446","3_Stimuli/T_ambi40.png","朋友","Image","朋友","Match","j","true","Practice"
"","","","","","html-keyboard-response","143","604991","0.0-7.2-0.2-1.63","null","<span style='color:GreenYellow; font-size: 70px;'>正确! </span>","null","","","","","","","","","","","","","","","","","","","","","","","","","feedback"
"","","","","","psychophysics","144","607250","0.0-7.2-0.2-0.64","1099","","j","","","","","","","","","","","","","key","j","16.663948148148375","720","446","3_Stimuli/C_ambi40.png","自我","Image","自我","Match","j","true","Practice"
"","","","","","html-keyboard-response","145","607554","0.0-7.2-0.2-1.64","null","<span style='color:GreenYellow; font-size: 70px;'>正确! </span>","null","","","","","","","","","","","","","","","","","","","","","","","","","feedback"
"","","","","","psychophysics","146","609755","0.0-7.2-0.2-0.65","1042","","f","","","","","","","","","","","","","key","f","16.663969696969477","720","446","3_Stimuli/S_ambi40.png","他人","Word","他人","Match","j","false","Practice"
"","","","","","html-keyboard-response","147","610070","0.0-7.2-0.2-1.65","null","<span style='color:red; font-size: 70px;'>错误! </span>","null","","","","","","","","","","","","","","","","","","","","","","","","","feedback"
"","","","","","psychophysics","148","611920","0.0-7.2-0.2-0.66","689","","j","","","","","","","","","","","","","key","j","16.664854545454197","720","446","3_Stimuli/C_ambi40.png","朋友","Image","自我","Mismatch","f","false","Practice"
"","","","","","html-keyboard-response","149","612228","0.0-7.2-0.2-1.66","null","<span style='color:red; font-size: 70px;'>错误! </span>","null","","","","","","","","","","","","","","","","","","","","","","","","","feedback"
"","","","","","psychophysics","150","614285","0.0-7.2-0.2-0.67","903","","f","","","","","","","","","","","","","key","f","16.66378861788577","720","446","3_Stimuli/T_ambi40.png","自我","Image","朋友","Mismatch","f","true","Practice"
"","","","","","html-keyboard-response","151","614600","0.0-7.2-0.2-1.67","null","<span style='color:GreenYellow; font-size: 70px;'>正确! </span>","null","","","","","","","","","","","","","","","","","","","","","","","","","feedback"
"","","","","","psychophysics","152","616989","0.0-7.2-0.2-0.68","1229","","f","","","","","","","","","","","","","key","f","16.664377622377174","720","446","3_Stimuli/T_ambi40.png","他人","Word","朋友","Mismatch","f","true","Practice"
"","","","","","html-keyboard-response","153","617303","0.0-7.2-0.2-1.68","null","<span style='color:GreenYellow; font-size: 70px;'>正确! </span>","null","","","","","","","","","","","","","","","","","","","","","","","","","feedback"
"","","","","","psychophysics","154","619573","0.0-7.2-0.2-0.69","1115","","j","","","","","","","","","","","","","key","j","16.66310370370349","720","446","3_Stimuli/S_ambi40.png","他人","Image","他人","Match","j","true","Practice"
"","","","","","html-keyboard-response","155","619883","0.0-7.2-0.2-1.69","null","<span style='color:GreenYellow; font-size: 70px;'>正确! </span>","null","","","","","","","","","","","","","","","","","","","","","","","","","feedback"
"","","","","","psychophysics","156","621811","0.0-7.2-0.2-0.70","769","","f","","","","","","","","","","","","","key","f","16.6635999999991","720","446","3_Stimuli/S_ambi40.png","自我","Image","他人","Mismatch","f","true","Practice"
"","","","","","html-keyboard-response","157","622113","0.0-7.2-0.2-1.70","null","<span style='color:GreenYellow; font-size: 70px;'>正确! </span>","null","","","","","","","","","","","","","","","","","","","","","","","","","feedback"
"","","","","","psychophysics","158","624579","0.0-7.2-0.2-0.71","1315","","j","","","","","","","","","","","","","key","j","16.663265306122447","720","446","3_Stimuli/S_ambi40.png","他人","Word","他人","Match","j","true","Practice"
"","","","","","html-keyboard-response","159","624886","0.0-7.2-0.2-1.71","null","<span style='color:GreenYellow; font-size: 70px;'>正确! </span>","null","","","","","","","","","","","","","","","","","","","","","","","","","feedback"
"","","","","","html-keyboard-response","160","1112624","0.0-8.0","487736","<style>.context{color:white; font-size: 35px; line-height:40px}</style>                          <div><p class='context'>您正确回答了88% 的试次。</p><p class='context'>您的平均反应时为795毫秒。</p><p class='context'>恭喜您完成练习。现在请休息3~5分钟。</p><p class='context'>之后，按任意键进入正式实验。需要注意的是，正式实验将不再提供反应是否正确的反馈。</p><p class='footer' style='font-size: 35px; line-height:40px;'>请在进入正式实验实验之前将您的<span style='color: lightgreen;'>食指</span>放在电脑键盘的相应键位上进行按键。</p>","f","","","","","","","","","","","","","","","","","","","","","","","","",""
"","","","","","psychophysics","161","1114527","0.0-9.0-0.0-0.0","750","","f","","","","","","","","","","","","","key","f","16.663884955752987","720","446","3_Stimuli/S_ambi40.png","朋友","Word","他人","Mismatch","f","true","Formal"
"","","","","","psychophysics","162","1116355","0.0-9.0-0.0-0.1","675","","f","","","","","","","","","","","","","key","f","16.663768518519916","720","446","3_Stimuli/C_ambi40.png","他人","Image","自我","Mismatch","f","true","Formal"
"","","","","","psychophysics","163","1118261","0.0-9.0-0.0-0.2","753","","j","","","","","","","","","","","","","key","j","16.665877192983764","720","446","3_Stimuli/T_ambi40.png","朋友","Image","朋友","Match","j","true","Formal"
"","","","","","psychophysics","164","1120012","0.0-9.0-0.0-0.3","597","","j","","","","","","","","","","","","","key","j","16.662990384616513","720","446","3_Stimuli/C_ambi40.png","自我","Word","自我","Match","j","true","Formal"
"","","","","","psychophysics","165","1121939","0.0-9.0-0.0-0.4","775","","j","","","","","","","","","","","","","key","j","16.663842105263797","720","446","3_Stimuli/T_ambi40.png","朋友","Image","朋友","Match","j","true","Formal"
"","","","","","psychophysics","166","1123580","0.0-9.0-0.0-0.5","489","","j","","","","","","","","","","","","","key","j","16.66248453608186","720","446","3_Stimuli/T_ambi40.png","朋友","Word","朋友","Match","j","true","Formal"
"","","","","","psychophysics","167","1125533","0.0-9.0-0.0-0.6","798","","f","","","","","","","","","","","","","key","f","16.66190517241344","720","446","3_Stimuli/S_ambi40.png","自我","Image","他人","Mismatch","f","true","Formal"
"","","","","","psychophysics","168","1127850","0.0-9.0-0.0-0.7","1159","","f","","","","","","","","","","","","","key","f","16.664065217391748","720","446","3_Stimuli/T_ambi40.png","自我","Image","朋友","Mismatch","f","true","Formal"
"","","","","","psychophysics","169","1130306","0.0-9.0-0.0-0.8","1300","","j","","","","","","","","","","","","","key","j","16.66317687074806","720","446","3_Stimuli/S_ambi40.png","他人","Word","他人","Match","j","true","Formal"
"","","","","","psychophysics","170","1132060","0.0-9.0-0.0-0.9","602","","f","","","","","","","","","","","","","key","f","16.66609615384592","720","446","3_Stimuli/T_ambi40.png","自我","Word","朋友","Mismatch","f","true","Formal"
"","","","","","psychophysics","171","1134392","0.0-9.0-0.0-0.10","1169","","j","","","","","","","","","","","","","key","j","16.66312949640321","720","446","3_Stimuli/C_ambi40.png","朋友","Image","自我","Mismatch","f","false","Formal"
"","","","","","psychophysics","172","1136608","0.0-9.0-0.0-0.11","1060","","f","","","","","","","","","","","","","key","f","16.66309848484922","720","446","3_Stimuli/S_ambi40.png","他人","Image","他人","Match","j","false","Formal"
"","","","","","psychophysics","173","1138364","0.0-9.0-0.0-0.12","594","","j","","","","","","","","","","","","","key","j","16.665115384615582","720","446","3_Stimuli/C_ambi40.png","自我","Image","自我","Match","j","true","Formal"
"","","","","","psychophysics","174","1140673","0.0-9.0-0.0-0.13","1151","","f","","","","","","","","","","","","","key","f","16.66378985507164","720","446","3_Stimuli/C_ambi40.png","朋友","Word","自我","Mismatch","f","true","Formal"
"","","","","","psychophysics","175","1143136","0.0-9.0-0.0-0.14","1302","","f","","","","","","","","","","","","","key","f","16.778703448275937","720","446","3_Stimuli/T_ambi40.png","他人","Word","朋友","Mismatch","f","true","Formal"
"","","","","","psychophysics","176","1145019","0.0-9.0-0.0-0.15","732","","f","","","","","","","","","","","","","key","f","16.664348214284733","720","446","3_Stimuli/C_ambi40.png","他人","Word","自我","Mismatch","f","true","Formal"
"","","","","","psychophysics","177","1147727","0.0-9.0-0.0-0.16","null","","null","","","","","","","","","","","","","key","null","16.66403105590053","720","446","3_Stimuli/T_ambi40.png","朋友","Word","朋友","Match","j","false","Formal"
"","","","","","psychophysics","178","1149762","0.0-9.0-0.0-0.17","876","","j","","","","","","","","","","","","","key","j","16.664363636362005","720","446","3_Stimuli/C_ambi40.png","自我","Image","自我","Match","j","true","Formal"
"","","","","","psychophysics","179","1151641","0.0-9.0-0.0-0.18","722","","f","","","","","","","","","","","","","key","f","16.664732142856728","720","446","3_Stimuli/T_ambi40.png","他人","Image","朋友","Mismatch","f","true","Formal"
"","","","","","psychophysics","180","1154176","0.0-9.0-0.0-0.19","1383","","j","","","","","","","","","","","","","key","j","16.663125827814458","720","446","3_Stimuli/S_ambi40.png","他人","Image","他人","Match","j","true","Formal"
"","","","","","psychophysics","181","1156361","0.0-9.0-0.0-0.20","1028","","f","","","","","","","","","","","","","key","f","16.663669230769244","720","446","3_Stimuli/S_ambi40.png","自我","Word","他人","Mismatch","f","true","Formal"
"","","","","","psychophysics","182","1159069","0.0-9.0-0.0-0.21","null","","null","","","","","","","","","","","","","key","null","16.66455555555445","720","446","3_Stimuli/S_ambi40.png","朋友","Image","他人","Mismatch","f","false","Formal"
"","","","","","psychophysics","183","1160817","0.0-9.0-0.0-0.22","587","","j","","","","","","","","","","","","","key","j","16.663834951456312","720","446","3_Stimuli/C_ambi40.png","自我","Word","自我","Match","j","true","Formal"
"","","","","","psychophysics","184","1162982","0.0-9.0-0.0-0.23","1006","","j","","","","","","","","","","","","","key","j","16.66362499999923","720","446","3_Stimuli/S_ambi40.png","他人","Word","他人","Match","j","true","Formal"
"","","","","","psychophysics","185","1164932","0.0-9.0-0.0-0.24","798","","j","","","","","","","","","","","","","key","j","16.663730434781833","720","446","3_Stimuli/S_ambi40.png","他人","Image","他人","Match","j","true","Formal"
"","","","","","psychophysics","186","1166744","0.0-9.0-0.0-0.25","659","","j","","","","","","","","","","","","","key","j","16.665120370369145","720","446","3_Stimuli/T_ambi40.png","朋友","Word","朋友","Match","j","true","Formal"
"","","","","","psychophysics","187","1168586","0.0-9.0-0.0-0.26","686","","f","","","","","","","","","","","","","key","f","16.66413636363577","720","446","3_Stimuli/T_ambi40.png","他人","Word","朋友","Mismatch","f","true","Formal"
"","","","","","psychophysics","188","1170532","0.0-9.0-0.0-0.27","783","","f","","","","","","","","","","","","","key","f","16.663756521740606","720","446","3_Stimuli/C_ambi40.png","他人","Image","自我","Mismatch","f","true","Formal"
"","","","","","psychophysics","189","1173060","0.0-9.0-0.0-0.28","1377","","f","","","","","","","","","","","","","key","f","16.663946666666305","720","446","3_Stimuli/C_ambi40.png","他人","Word","自我","Mismatch","f","true","Formal"
"","","","","","psychophysics","190","1174951","0.0-9.0-0.0-0.29","736","","f","","","","","","","","","","","","","key","f","16.66423008849523","720","446","3_Stimuli/C_ambi40.png","自我","Word","自我","Match","j","false","Formal"
"","","","","","psychophysics","191","1177274","0.0-9.0-0.0-0.30","1169","","j","","","","","","","","","","","","","key","j","16.66347101449197","720","446","3_Stimuli/C_ambi40.png","自我","Image","自我","Match","j","true","Formal"
"","","","","","psychophysics","192","1179119","0.0-9.0-0.0-0.31","687","","f","","","","","","","","","","","","","key","f","16.66357272727288","720","446","3_Stimuli/T_ambi40.png","自我","Word","朋友","Mismatch","f","true","Formal"
"","","","","","psychophysics","193","1181069","0.0-9.0-0.0-0.32","798","","f","","","","","","","","","","","","","key","f","16.66317241379373","720","446","3_Stimuli/S_ambi40.png","自我","Image","他人","Mismatch","f","true","Formal"
"","","","","","psychophysics","194","1182919","0.0-9.0-0.0-0.33","690","","j","","","","","","","","","","","","","key","j","16.66353636363479","720","446","3_Stimuli/C_ambi40.png","自我","Image","自我","Match","j","true","Formal"
"","","","","","psychophysics","195","1184884","0.0-9.0-0.0-0.34","813","","f","","","","","","","","","","","","","key","f","16.662700854699548","720","446","3_Stimuli/S_ambi40.png","朋友","Image","他人","Mismatch","f","true","Formal"
"","","","","","psychophysics","196","1187255","0.0-9.0-0.0-0.35","1216","","j","","","","","","","","","","","","","key","j","16.663702127659125","720","446","3_Stimuli/S_ambi40.png","他人","Word","他人","Match","j","true","Formal"
"","","","","","psychophysics","197","1189188","0.0-9.0-0.0-0.36","775","","f","","","","","","","","","","","","","key","f","16.665226086955922","720","446","3_Stimuli/C_ambi40.png","朋友","Word","自我","Mismatch","f","true","Formal"
"","","","","","psychophysics","198","1191205","0.0-9.0-0.0-0.37","859","","j","","","","","","","","","","","","","key","j","16.66435000000056","720","446","3_Stimuli/T_ambi40.png","朋友","Image","朋友","Match","j","true","Formal"
"","","","","","psychophysics","199","1193048","0.0-9.0-0.0-0.38","686","","j","","","","","","","","","","","","","key","j","16.66289999999995","720","446","3_Stimuli/C_ambi40.png","自我","Word","自我","Match","j","true","Formal"
"","","","","","psychophysics","200","1195083","0.0-9.0-0.0-0.39","877","","j","","","","","","","","","","","","","key","j","16.663991735538097","720","446","3_Stimuli/T_ambi40.png","朋友","Word","朋友","Match","j","true","Formal"
"","","","","","psychophysics","201","1197236","0.0-9.0-0.0-0.40","1001","","f","","","","","","","","","","","","","key","f","16.6641796874992","720","446","3_Stimuli/T_ambi40.png","自我","Image","朋友","Mismatch","f","true","Formal"
"","","","","","psychophysics","202","1199535","0.0-9.0-0.0-0.41","1143","","f","","","","","","","","","","","","","key","f","16.66483211678786","720","446","3_Stimuli/T_ambi40.png","他人","Image","朋友","Mismatch","f","true","Formal"
"","","","","","psychophysics","203","1201976","0.0-9.0-0.0-0.42","1282","","f","","","","","","","","","","","","","key","f","16.664241379311566","720","446","3_Stimuli/C_ambi40.png","朋友","Image","自我","Mismatch","f","true","Formal"
"","","","","","psychophysics","204","1203933","0.0-9.0-0.0-0.43","806","","f","","","","","","","","","","","","","key","f","16.663811965811696","720","446","3_Stimuli/S_ambi40.png","朋友","Word","他人","Mismatch","f","true","Formal"
"","","","","","psychophysics","205","1205961","0.0-9.0-0.0-0.44","869","","j","","","","","","","","","","","","","key","j","16.664157024792527","720","446","3_Stimuli/S_ambi40.png","他人","Image","他人","Match","j","true","Formal"
"","","","","","psychophysics","206","1207840","0.0-9.0-0.0-0.45","714","","f","","","","","","","","","","","","","key","f","16.663585585583974","720","446","3_Stimuli/S_ambi40.png","自我","Word","他人","Mismatch","f","true","Formal"
"","","","","","psychophysics","207","1210124","0.0-9.0-0.0-0.46","1132","","j","","","","","","","","","","","","","key","j","16.664426470587976","720","446","3_Stimuli/S_ambi40.png","他人","Word","他人","Match","j","true","Formal"
"","","","","","psychophysics","208","1212201","0.0-9.0-0.0-0.47","926","","j","","","","","","","","","","","","","key","j","16.66445528455192","720","446","3_Stimuli/T_ambi40.png","朋友","Image","朋友","Match","j","true","Formal"
"","","","","","psychophysics","209","1213935","0.0-9.0-0.0-0.48","580","","f","","","","","","","","","","","","","key","f","16.664165048543545","720","446","3_Stimuli/S_ambi40.png","他人","Image","他人","Match","j","false","Formal"
"","","","","","psychophysics","210","1216001","0.0-9.0-0.0-0.49","915","","j","","","","","","","","","","","","","key","j","16.663585365854008","720","446","3_Stimuli/S_ambi40.png","他人","Word","他人","Match","j","true","Formal"
"","","","","","psychophysics","211","1217712","0.0-9.0-0.0-0.50","555","","j","","","","","","","","","","","","","key","j","16.663294117646657","720","446","3_Stimuli/S_ambi40.png","他人","Image","他人","Match","j","true","Formal"
"","","","","","psychophysics","212","1219898","0.0-9.0-0.0-0.51","1034","","j","","","","","","","","","","","","","key","j","16.664176923075978","720","446","3_Stimuli/C_ambi40.png","朋友","Word","自我","Mismatch","f","false","Formal"
"","","","","","psychophysics","213","1221852","0.0-9.0-0.0-0.52","795","","j","","","","","","","","","","","","","key","j","16.664120689654673","720","446","3_Stimuli/C_ambi40.png","自我","Image","自我","Match","j","true","Formal"
"","","","","","psychophysics","214","1224038","0.0-9.0-0.0-0.53","1034","","f","","","","","","","","","","","","","key","f","16.66396153846111","720","446","3_Stimuli/C_ambi40.png","他人","Image","自我","Mismatch","f","true","Formal"
"","","","","","psychophysics","215","1226747","0.0-9.0-0.0-0.54","null","","null","","","","","","","","","","","","","key","null","16.663515527949592","720","446","3_Stimuli/T_ambi40.png","朋友","Word","朋友","Match","j","false","Formal"
"","","","","","psychophysics","216","1229455","0.0-9.0-0.0-0.55","null","","null","","","","","","","","","","","","","key","null","16.663888198757395","720","446","3_Stimuli/S_ambi40.png","朋友","Image","他人","Mismatch","f","false","Formal"
"","","","","","psychophysics","217","1231642","0.0-9.0-0.0-0.56","1028","","f","","","","","","","","","","","","","key","f","16.66327692307711","720","446","3_Stimuli/T_ambi40.png","他人","Word","朋友","Mismatch","f","true","Formal"
"","","","","","psychophysics","218","1233423","0.0-9.0-0.0-0.57","626","","j","","","","","","","","","","","","","key","j","16.662867924527987","720","446","3_Stimuli/C_ambi40.png","自我","Image","自我","Match","j","true","Formal"
"","","","","","psychophysics","219","1235379","0.0-9.0-0.0-0.58","797","","j","","","","","","","","","","","","","key","j","16.664181034482116","720","446","3_Stimuli/T_ambi40.png","朋友","Image","朋友","Match","j","true","Formal"
"","","","","","psychophysics","220","1237513","0.0-9.0-0.0-0.59","976","","f","","","","","","","","","","","","","key","f","16.66411023622188","720","446","3_Stimuli/T_ambi40.png","自我","Word","朋友","Mismatch","f","true","Formal"
"","","","","","psychophysics","221","1239455","0.0-9.0-0.0-0.60","785","","j","","","","","","","","","","","","","key","j","16.663810344828406","720","446","3_Stimuli/S_ambi40.png","他人","Word","他人","Match","j","true","Formal"
"","","","","","psychophysics","222","1241342","0.0-9.0-0.0-0.61","723","","f","","","","","","","","","","","","","key","f","16.66446428571362","720","446","3_Stimuli/S_ambi40.png","朋友","Word","他人","Mismatch","f","true","Formal"
"","","","","","psychophysics","223","1243817","0.0-9.0-0.0-0.62","1322","","f","","","","","","","","","","","","","key","f","16.663517006802795","720","446","3_Stimuli/S_ambi40.png","自我","Word","他人","Mismatch","f","true","Formal"
"","","","","","psychophysics","224","1245459","0.0-9.0-0.0-0.63","490","","j","","","","","","","","","","","","","key","j","16.664857142856725","720","446","3_Stimuli/C_ambi40.png","自我","Word","自我","Match","j","true","Formal"
"","","","","","psychophysics","225","1247378","0.0-9.0-0.0-0.64","759","","f","","","","","","","","","","","","","key","f","16.66442105263112","720","446","3_Stimuli/S_ambi40.png","自我","Image","他人","Mismatch","f","true","Formal"
"","","","","","psychophysics","226","1249320","0.0-9.0-0.0-0.65","784","","j","","","","","","","","","","","","","key","j","16.663715517240703","720","446","3_Stimuli/C_ambi40.png","自我","Word","自我","Match","j","true","Formal"
"","","","","","psychophysics","227","1251204","0.0-9.0-0.0-0.66","733","","f","","","","","","","","","","","","","key","f","16.664473214286513","720","446","3_Stimuli/T_ambi40.png","朋友","Image","朋友","Match","j","false","Formal"
"","","","","","psychophysics","228","1252895","0.0-9.0-0.0-0.67","539","","j","","","","","","","","","","","","","key","j","16.663799999998883","720","446","3_Stimuli/T_ambi40.png","朋友","Word","朋友","Match","j","true","Formal"
"","","","","","psychophysics","229","1254788","0.0-9.0-0.0-0.68","737","","f","","","","","","","","","","","","","key","f","16.66374336283209","720","446","3_Stimuli/T_ambi40.png","他人","Image","朋友","Mismatch","f","true","Formal"
"","","","","","psychophysics","230","1256773","0.0-9.0-0.0-0.69","823","","f","","","","","","","","","","","","","key","f","16.66383050847404","720","446","3_Stimuli/C_ambi40.png","朋友","Image","自我","Mismatch","f","true","Formal"
"","","","","","psychophysics","231","1258724","0.0-9.0-0.0-0.70","790","","f","","","","","","","","","","","","","key","f","16.663724137931773","720","446","3_Stimuli/T_ambi40.png","自我","Image","朋友","Mismatch","f","true","Formal"
"","","","","","psychophysics","232","1261075","0.0-9.0-0.0-0.71","1192","","f","","","","","","","","","","","","","key","f","16.665435714286286","720","446","3_Stimuli/C_ambi40.png","他人","Word","自我","Mismatch","f","true","Formal"
"","","","","","psychophysics","233","1262716","0.0-9.0-0.0-0.72","483","","f","","","","","","","","","","","","","key","f","16.663907216494596","720","446","3_Stimuli/T_ambi40.png","自我","Word","朋友","Mismatch","f","true","Formal"
"","","","","","psychophysics","234","1265024","0.0-9.0-0.0-0.73","1157","","f","","","","","","","","","","","","","key","f","16.66475912408876","720","446","3_Stimuli/S_ambi40.png","朋友","Word","他人","Mismatch","f","true","Formal"
"","","","","","psychophysics","235","1267281","0.0-9.0-0.0-0.74","1099","","f","","","","","","","","","","","","","key","f","16.663037313433335","720","446","3_Stimuli/T_ambi40.png","朋友","Word","朋友","Match","j","false","Formal"
"","","","","","psychophysics","236","1269457","0.0-9.0-0.0-0.75","1025","","f","","","","","","","","","","","","","key","f","16.66444186046503","720","446","3_Stimuli/S_ambi40.png","自我","Image","他人","Mismatch","f","true","Formal"
"","","","","","psychophysics","237","1272164","0.0-9.0-0.0-0.76","null","","null","","","","","","","","","","","","","key","null","16.663608695652268","720","446","3_Stimuli/T_ambi40.png","他人","Word","朋友","Mismatch","f","false","Formal"
"","","","","","psychophysics","238","1273951","0.0-9.0-0.0-0.77","627","","j","","","","","","","","","","","","","key","j","16.665132075471295","720","446","3_Stimuli/C_ambi40.png","自我","Image","自我","Match","j","true","Formal"
"","","","","","psychophysics","239","1275871","0.0-9.0-0.0-0.78","758","","j","","","","","","","","","","","","","key","j","16.664561403508852","720","446","3_Stimuli/C_ambi40.png","自我","Image","自我","Match","j","true","Formal"
"","","","","","psychophysics","240","1277749","0.0-9.0-0.0-0.79","724","","f","","","","","","","","","","","","","key","f","16.663821428571413","720","446","3_Stimuli/S_ambi40.png","他人","Image","他人","Match","j","false","Formal"
"","","","","","psychophysics","241","1279573","0.0-9.0-0.0-0.80","671","","f","","","","","","","","","","","","","key","f","16.664009259261313","720","446","3_Stimuli/T_ambi40.png","自我","Image","朋友","Mismatch","f","true","Formal"
"","","","","","psychophysics","242","1281508","0.0-9.0-0.0-0.81","778","","j","","","","","","","","","","","","","key","j","16.663895652173895","720","446","3_Stimuli/S_ambi40.png","他人","Word","他人","Match","j","true","Formal"
"","","","","","psychophysics","243","1283345","0.0-9.0-0.0-0.82","682","","f","","","","","","","","","","","","","key","f","16.663752293579467","720","446","3_Stimuli/C_ambi40.png","朋友","Word","自我","Mismatch","f","true","Formal"
"","","","","","psychophysics","244","1285203","0.0-9.0-0.0-0.83","707","","j","","","","","","","","","","","","","key","j","16.66533333333293","720","446","3_Stimuli/S_ambi40.png","他人","Image","他人","Match","j","true","Formal"
"","","","","","psychophysics","245","1287064","0.0-9.0-0.0-0.84","702","","f","","","","","","","","","","","","","key","f","16.663702702703507","720","446","3_Stimuli/T_ambi40.png","朋友","Word","朋友","Match","j","false","Formal"
"","","","","","psychophysics","246","1288819","0.0-9.0-0.0-0.85","590","","j","","","","","","","","","","","","","key","j","16.66420192307515","720","446","3_Stimuli/T_ambi40.png","朋友","Image","朋友","Match","j","true","Formal"
"","","","","","psychophysics","247","1290721","0.0-9.0-0.0-0.86","748","","f","","","","","","","","","","","","","key","f","16.663769911502825","720","446","3_Stimuli/S_ambi40.png","朋友","Image","他人","Mismatch","f","true","Formal"
"","","","","","psychophysics","248","1292814","0.0-9.0-0.0-0.87","942","","f","","","","","","","","","","","","","key","f","16.664184000000358","720","446","3_Stimuli/C_ambi40.png","朋友","Image","自我","Mismatch","f","true","Formal"
"","","","","","psychophysics","249","1294581","0.0-9.0-0.0-0.88","604","","j","","","","","","","","","","","","","key","j","16.664019047619686","720","446","3_Stimuli/C_ambi40.png","自我","Word","自我","Match","j","true","Formal"
"","","","","","psychophysics","250","1296652","0.0-9.0-0.0-0.89","916","","j","","","","","","","","","","","","","key","j","16.663357723576237","720","446","3_Stimuli/T_ambi40.png","朋友","Image","朋友","Match","j","true","Formal"
"","","","","","psychophysics","251","1298658","0.0-9.0-0.0-0.90","854","","f","","","","","","","","","","","","","key","f","16.663109243696773","720","446","3_Stimuli/C_ambi40.png","他人","Image","自我","Mismatch","f","true","Formal"
"","","","","","psychophysics","252","1300597","0.0-9.0-0.0-0.91","787","","j","","","","","","","","","","","","","key","j","16.6635775862077","720","446","3_Stimuli/C_ambi40.png","自我","Word","自我","Match","j","true","Formal"
"","","","","","psychophysics","253","1302498","0.0-9.0-0.0-0.92","743","","j","","","","","","","","","","","","","key","j","16.663849557523278","720","446","3_Stimuli/S_ambi40.png","他人","Word","他人","Match","j","true","Formal"
"","","","","","psychophysics","254","1304579","0.0-9.0-0.0-0.93","920","","f","","","","","","","","","","","","","key","f","16.663604838709766","720","446","3_Stimuli/S_ambi40.png","自我","Word","他人","Mismatch","f","true","Formal"
"","","","","","psychophysics","255","1306539","0.0-9.0-0.0-0.94","805","","f","","","","","","","","","","","","","key","f","16.663801724137336","720","446","3_Stimuli/C_ambi40.png","他人","Word","自我","Mismatch","f","true","Formal"
"","","","","","psychophysics","256","1308307","0.0-9.0-0.0-0.95","616","","f","","","","","","","","","","","","","key","f","16.662788461537836","720","446","3_Stimuli/T_ambi40.png","他人","Image","朋友","Mismatch","f","true","Formal"
"","","","","","psychophysics","257","1310029","0.0-9.0-0.0-0.96","571","","f","","","","","","","","","","","","","key","f","16.66355882352903","720","446","3_Stimuli/T_ambi40.png","他人","Image","朋友","Mismatch","f","true","Formal"
"","","","","","psychophysics","258","1311901","0.0-9.0-0.0-0.97","710","","f","","","","","","","","","","","","","key","f","16.664225225225678","720","446","3_Stimuli/C_ambi40.png","朋友","Image","自我","Mismatch","f","true","Formal"
"","","","","","psychophysics","259","1313525","0.0-9.0-0.0-0.98","468","","f","","","","","","","","","","","","","key","f","16.663731958762714","720","446","3_Stimuli/S_ambi40.png","朋友","Image","他人","Mismatch","f","true","Formal"
"","","","","","psychophysics","260","1315254","0.0-9.0-0.0-0.99","577","","f","","","","","","","","","","","","","key","f","16.66411764705873","720","446","3_Stimuli/S_ambi40.png","朋友","Word","他人","Mismatch","f","true","Formal"
"","","","","","psychophysics","261","1316976","0.0-9.0-0.0-0.100","569","","f","","","","","","","","","","","","","key","f","16.663893203884","720","446","3_Stimuli/S_ambi40.png","自我","Word","他人","Mismatch","f","true","Formal"
"","","","","","psychophysics","262","1318899","0.0-9.0-0.0-0.101","768","","f","","","","","","","","","","","","","key","f","16.664052631579374","720","446","3_Stimuli/T_ambi40.png","朋友","Word","朋友","Match","j","false","Formal"
"","","","","","psychophysics","263","1320554","0.0-9.0-0.0-0.102","500","","j","","","","","","","","","","","","","key","j","16.663673469388137","720","446","3_Stimuli/T_ambi40.png","朋友","Image","朋友","Match","j","true","Formal"
"","","","","","psychophysics","264","1322158","0.0-9.0-0.0-0.103","452","","j","","","","","","","","","","","","","key","j","16.66404166666568","720","446","3_Stimuli/T_ambi40.png","朋友","Image","朋友","Match","j","true","Formal"
"","","","","","psychophysics","265","1323976","0.0-9.0-0.0-0.104","654","","j","","","","","","","","","","","","","key","j","16.664388888888492","720","446","3_Stimuli/C_ambi40.png","自我","Image","自我","Match","j","true","Formal"
"","","","","","psychophysics","266","1325742","0.0-9.0-0.0-0.105","607","","f","","","","","","","","","","","","","key","f","16.663876190475587","720","446","3_Stimuli/T_ambi40.png","自我","Image","朋友","Mismatch","f","true","Formal"
"","","","","","psychophysics","267","1327652","0.0-9.0-0.0-0.106","756","","f","","","","","","","","","","","","","key","f","16.663787610620773","720","446","3_Stimuli/C_ambi40.png","他人","Word","自我","Mismatch","f","true","Formal"
"","","","","","psychophysics","268","1329356","0.0-9.0-0.0-0.107","551","","j","","","","","","","","","","","","","key","j","16.66407843137288","720","446","3_Stimuli/S_ambi40.png","他人","Image","他人","Match","j","true","Formal"
"","","","","","psychophysics","269","1331181","0.0-9.0-0.0-0.108","668","","j","","","","","","","","","","","","","key","j","16.663648148149218","720","446","3_Stimuli/C_ambi40.png","自我","Image","自我","Match","j","true","Formal"
"","","","","","psychophysics","270","1332860","0.0-9.0-0.0-0.109","522","","f","","","","","","","","","","","","","key","f","16.664650000000837","720","446","3_Stimuli/S_ambi40.png","自我","Image","他人","Mismatch","f","true","Formal"
"","","","","","psychophysics","271","1334722","0.0-9.0-0.0-0.110","710","","j","","","","","","","","","","","","","key","j","16.6636396396385","720","446","3_Stimuli/T_ambi40.png","朋友","Word","朋友","Match","j","true","Formal"
"","","","","","psychophysics","272","1336531","0.0-9.0-0.0-0.111","649","","f","","","","","","","","","","","","","key","f","16.663308411216466","720","446","3_Stimuli/S_ambi40.png","他人","Image","他人","Match","j","false","Formal"
"","","","","","psychophysics","273","1338473","0.0-9.0-0.0-0.112","785","","f","","","","","","","","","","","","","key","f","16.6639741379306","720","446","3_Stimuli/T_ambi40.png","自我","Word","朋友","Mismatch","f","true","Formal"
"","","","","","psychophysics","274","1340319","0.0-9.0-0.0-0.113","682","","j","","","","","","","","","","","","","key","j","16.663366972477338","720","446","3_Stimuli/C_ambi40.png","自我","Word","自我","Match","j","true","Formal"
"","","","","","psychophysics","275","1342044","0.0-9.0-0.0-0.114","565","","f","","","","","","","","","","","","","key","f","16.663784313725547","720","446","3_Stimuli/C_ambi40.png","朋友","Word","自我","Mismatch","f","true","Formal"
"","","","","","psychophysics","276","1343924","0.0-9.0-0.0-0.115","726","","j","","","","","","","","","","","","","key","j","16.664098214285332","720","446","3_Stimuli/S_ambi40.png","他人","Word","他人","Match","j","true","Formal"
"","","","","","psychophysics","277","1345890","0.0-9.0-0.0-0.116","804","","f","","","","","","","","","","","","","key","f","16.664162393163842","720","446","3_Stimuli/C_ambi40.png","他人","Image","自我","Mismatch","f","true","Formal"
"","","","","","psychophysics","278","1348229","0.0-9.0-0.0-0.117","1187","","j","","","","","","","","","","","","","key","j","16.664604316545958","720","446","3_Stimuli/C_ambi40.png","自我","Word","自我","Match","j","true","Formal"
"","","","","","psychophysics","279","1349822","0.0-9.0-0.0-0.118","439","","f","","","","","","","","","","","","","key","f","17.787505617977402","720","446","3_Stimuli/T_ambi40.png","他人","Word","朋友","Mismatch","f","true","Formal"
"","","","","","psychophysics","280","1351823","0.0-9.0-0.0-0.119","846","","j","","","","","","","","","","","","","key","j","16.66347058823512","720","446","3_Stimuli/S_ambi40.png","他人","Word","他人","Match","j","true","Formal"
"","","","","","html-keyboard-response","281","1362524","0.0-9.0-1.0","10699","<style>.context{color:white; font-size: 35px; line-height:40px}</style>                        <div><p class='context'>您正确回答了87% 的试次。</p><p class='context'>您的平均反应时为802毫秒。</p><p> <div style = 'color: green'><按任意键进入休息></div></p>"," ","","","","","","","","","","","","","","","","","","","","","","","","",""
"","","","","","html-button-response","282","1386688","0.0-9.0-2.0","24162","
                  <p>您当前还剩余5组实验</p>
                  <p>现在是休息时间，当您结束休息后，您可以点击 结束休息 按钮 继续</p>
                  <p>建议休息时间还剩余<span id=""iii"">60</span>秒</p>","0","","","","","","","","","","","","","","","","","","","","","","","","",""
"","","","","","psychophysics","283","1388941","0.0-9.0-0.1-0.120","1093","","j","","","","","","","","","","","","","key","j","16.664432835820783","720","446","3_Stimuli/T_ambi40.png","朋友","Image","朋友","Match","j","true","Formal"
"","","","","","psychophysics","284","1390702","0.0-9.0-0.1-0.121","608","","j","","","","","","","","","","","","","key","j","16.665314285714356","720","446","3_Stimuli/C_ambi40.png","自我","Word","自我","Match","j","true","Formal"
"","","","","","psychophysics","285","1392990","0.0-9.0-0.1-0.122","1126","","f","","","","","","","","","","","","","key","f","16.663536764705306","720","446","3_Stimuli/S_ambi40.png","自我","Word","他人","Mismatch","f","true","Formal"
"","","","","","psychophysics","286","1395251","0.0-9.0-0.1-0.123","1104","","j","","","","","","","","","","","","","key","j","16.66491851851827","720","446","3_Stimuli/T_ambi40.png","自我","Image","朋友","Mismatch","f","false","Formal"
"","","","","","psychophysics","287","1397117","0.0-9.0-0.1-0.124","704","","f","","","","","","","","","","","","","key","f","16.663576576575586","720","446","3_Stimuli/C_ambi40.png","朋友","Image","自我","Mismatch","f","true","Formal"
"","","","","","psychophysics","288","1398943","0.0-9.0-0.1-0.125","670","","j","","","","","","","","","","","","","key","j","16.66452777777643","720","446","3_Stimuli/T_ambi40.png","朋友","Word","朋友","Match","j","true","Formal"
"","","","","","psychophysics","289","1400844","0.0-9.0-0.1-0.126","748","","f","","","","","","","","","","","","","key","f","16.664070796460507","720","446","3_Stimuli/S_ambi40.png","朋友","Word","他人","Mismatch","f","true","Formal"
"","","","","","psychophysics","290","1403092","0.0-9.0-0.1-0.127","1095","","j","","","","","","","","","","","","","key","j","16.66389552238849","720","446","3_Stimuli/T_ambi40.png","他人","Image","朋友","Mismatch","f","false","Formal"
"","","","","","psychophysics","291","1404936","0.0-9.0-0.1-0.128","691","","f","","","","","","","","","","","","","key","f","16.66351818181786","720","446","3_Stimuli/T_ambi40.png","他人","Word","朋友","Mismatch","f","true","Formal"
"","","","","","psychophysics","292","1406638","0.0-9.0-0.1-0.129","543","","j","","","","","","","","","","","","","key","j","16.66421782178343","720","446","3_Stimuli/C_ambi40.png","自我","Image","自我","Match","j","true","Formal"
"","","","","","psychophysics","293","1408338","0.0-9.0-0.1-0.130","548","","f","","","","","","","","","","","","","key","f","16.664069306930656","720","446","3_Stimuli/S_ambi40.png","他人","Image","他人","Match","j","false","Formal"
"","","","","","psychophysics","294","1410097","0.0-9.0-0.1-0.131","602","","f","","","","","","","","","","","","","key","f","16.66441904761873","720","446","3_Stimuli/T_ambi40.png","朋友","Word","朋友","Match","j","false","Formal"
"","","","","","psychophysics","295","1411967","0.0-9.0-0.1-0.132","713","","f","","","","","","","","","","","","","key","f","16.664117117116632","720","446","3_Stimuli/C_ambi40.png","朋友","Word","自我","Mismatch","f","true","Formal"
"","","","","","psychophysics","296","1413952","0.0-9.0-0.1-0.133","825","","f","","","","","","","","","","","","","key","f","16.663745762711248","720","446","3_Stimuli/S_ambi40.png","自我","Image","他人","Mismatch","f","true","Formal"
"","","","","","psychophysics","297","1416063","0.0-9.0-0.1-0.134","952","","f","","","","","","","","","","","","","key","f","16.663682539683087","720","446","3_Stimuli/S_ambi40.png","朋友","Image","他人","Mismatch","f","true","Formal"
"","","","","","psychophysics","298","1417846","0.0-9.0-0.1-0.135","627","","j","","","","","","","","","","","","","key","j","16.663603773584395","720","446","3_Stimuli/S_ambi40.png","他人","Word","他人","Match","j","true","Formal"
"","","","","","psychophysics","299","1419542","0.0-9.0-0.1-0.136","532","","f","","","","","","","","","","","","","key","f","16.663640000000598","720","446","3_Stimuli/C_ambi40.png","他人","Word","自我","Mismatch","f","true","Formal"
"","","","","","psychophysics","300","1421434","0.0-9.0-0.1-0.137","740","","j","","","","","","","","","","","","","key","j","16.663946428571112","720","446","3_Stimuli/S_ambi40.png","他人","Word","他人","Match","j","true","Formal"
"","","","","","psychophysics","301","1423186","0.0-9.0-0.1-0.138","600","","f","","","","","","","","","","","","","key","f","16.66403846153676","720","446","3_Stimuli/C_ambi40.png","他人","Image","自我","Mismatch","f","true","Formal"
"","","","","","psychophysics","302","1425387","0.0-9.0-0.1-0.139","1044","","f","","","","","","","","","","","","","key","f","16.66329007633635","720","446","3_Stimuli/T_ambi40.png","朋友","Image","朋友","Match","j","false","Formal"
"","","","","","psychophysics","303","1427061","0.0-9.0-0.1-0.140","519","","f","","","","","","","","","","","","","key","f","16.66435000000056","720","446","3_Stimuli/S_ambi40.png","他人","Image","他人","Match","j","false","Formal"
"","","","","","psychophysics","304","1428780","0.0-9.0-0.1-0.141","555","","f","","","","","","","","","","","","","key","f","16.663813725490506","720","446","3_Stimuli/T_ambi40.png","自我","Word","朋友","Mismatch","f","true","Formal"
"","","","","","psychophysics","305","1430469","0.0-9.0-0.1-0.142","535","","j","","","","","","","","","","","","","key","j","16.663869999998713","720","446","3_Stimuli/C_ambi40.png","自我","Word","自我","Match","j","true","Formal"
"","","","","","psychophysics","306","1432094","0.0-9.0-0.1-0.143","474","","j","","","","","","","","","","","","","key","j","16.663030927835187","720","446","3_Stimuli/C_ambi40.png","自我","Image","自我","Match","j","true","Formal"
"","","","","","psychophysics","307","1433936","0.0-9.0-0.1-0.144","679","","j","","","","","","","","","","","","","key","j","16.6640642201827","720","446","3_Stimuli/S_ambi40.png","他人","Image","他人","Match","j","true","Formal"
"","","","","","psychophysics","308","1435881","0.0-9.0-0.1-0.145","791","","f","","","","","","","","","","","","","key","f","16.66620689654996","720","446","3_Stimuli/S_ambi40.png","朋友","Image","他人","Mismatch","f","true","Formal"
"","","","","","psychophysics","309","1437524","0.0-9.0-0.1-0.146","490","","j","","","","","","","","","","","","","key","j","16.663734693878464","720","446","3_Stimuli/S_ambi40.png","朋友","Word","他人","Mismatch","f","false","Formal"
"","","","","","psychophysics","310","1439838","0.0-9.0-0.1-0.147","1153","","f","","","","","","","","","","","","","key","f","16.66305839416","720","446","3_Stimuli/C_ambi40.png","他人","Image","自我","Mismatch","f","true","Formal"
"","","","","","psychophysics","311","1441917","0.0-9.0-0.1-0.148","927","","f","","","","","","","","","","","","","key","f","16.663756097560913","720","446","3_Stimuli/C_ambi40.png","他人","Word","自我","Mismatch","f","true","Formal"
"","","","","","psychophysics","312","1443550","0.0-9.0-0.1-0.149","477","","f","","","","","","","","","","","","","key","f","16.664113402061798","720","446","3_Stimuli/S_ambi40.png","他人","Image","他人","Match","j","false","Formal"
"","","","","","psychophysics","313","1445571","0.0-9.0-0.1-0.150","866","","f","","","","","","","","","","","","","key","f","16.66296666666749","720","446","3_Stimuli/S_ambi40.png","自我","Image","他人","Mismatch","f","true","Formal"
"","","","","","psychophysics","314","1447803","0.0-9.0-0.1-0.151","1080","","f","","","","","","","","","","","","","key","f","16.66462121212107","720","446","3_Stimuli/S_ambi40.png","他人","Word","他人","Match","j","false","Formal"
"","","","","","psychophysics","315","1449504","0.0-9.0-0.1-0.152","549","","f","","","","","","","","","","","","","key","f","16.663435643564192","720","446","3_Stimuli/S_ambi40.png","自我","Word","他人","Mismatch","f","true","Formal"
"","","","","","psychophysics","316","1451438","0.0-9.0-0.1-0.153","783","","f","","","","","","","","","","","","","key","f","16.661852173912138","720","446","3_Stimuli/C_ambi40.png","朋友","Image","自我","Mismatch","f","true","Formal"
"","","","","","psychophysics","317","1453265","0.0-9.0-0.1-0.154","676","","j","","","","","","","","","","","","","key","j","16.664296296295813","720","446","3_Stimuli/T_ambi40.png","朋友","Image","朋友","Match","j","true","Formal"
"","","","","","psychophysics","318","1455018","0.0-9.0-0.1-0.155","597","","j","","","","","","","","","","","","","key","j","16.663163461538854","720","446","3_Stimuli/C_ambi40.png","自我","Word","自我","Match","j","true","Formal"
"","","","","","psychophysics","319","1456896","0.0-9.0-0.1-0.156","725","","f","","","","","","","","","","","","","key","f","16.664053571429186","720","446","3_Stimuli/T_ambi40.png","自我","Image","朋友","Mismatch","f","true","Formal"
"","","","","","psychophysics","320","1458826","0.0-9.0-0.1-0.157","774","","f","","","","","","","","","","","","","key","f","16.664547826086537","720","446","3_Stimuli/S_ambi40.png","他人","Word","他人","Match","j","false","Formal"
"","","","","","psychophysics","321","1460649","0.0-9.0-0.1-0.158","669","","j","","","","","","","","","","","","","key","j","16.663138888888405","720","446","3_Stimuli/C_ambi40.png","自我","Image","自我","Match","j","true","Formal"
"","","","","","psychophysics","322","1462652","0.0-9.0-0.1-0.159","849","","f","","","","","","","","","","","","","key","f","16.66302521008325","720","446","3_Stimuli/T_ambi40.png","朋友","Word","朋友","Match","j","false","Formal"
"","","","","","psychophysics","323","1464483","0.0-9.0-0.1-0.160","680","","j","","","","","","","","","","","","","key","j","16.664194444444515","720","446","3_Stimuli/C_ambi40.png","自我","Word","自我","Match","j","true","Formal"
"","","","","","psychophysics","324","1466375","0.0-9.0-0.1-0.161","739","","f","","","","","","","","","","","","","key","f","16.66489380531104","720","446","3_Stimuli/C_ambi40.png","朋友","Word","自我","Mismatch","f","true","Formal"
"","","","","","psychophysics","325","1468108","0.0-9.0-0.1-0.162","573","","j","","","","","","","","","","","","","key","j","16.663009708738226","720","446","3_Stimuli/C_ambi40.png","自我","Image","自我","Match","j","true","Formal"
"","","","","","psychophysics","326","1469964","0.0-9.0-0.1-0.163","701","","j","","","","","","","","","","","","","key","j","16.664872727272186","720","446","3_Stimuli/T_ambi40.png","朋友","Image","朋友","Match","j","true","Formal"
"","","","","","psychophysics","327","1471785","0.0-9.0-0.1-0.164","668","","f","","","","","","","","","","","","","key","f","16.66418348623807","720","446","3_Stimuli/T_ambi40.png","自我","Word","朋友","Mismatch","f","true","Formal"
"","","","","","psychophysics","328","1473509","0.0-9.0-0.1-0.165","565","","f","","","","","","","","","","","","","key","f","16.664186274509547","720","446","3_Stimuli/T_ambi40.png","他人","Image","朋友","Mismatch","f","true","Formal"
"","","","","","psychophysics","329","1475243","0.0-9.0-0.1-0.166","582","","j","","","","","","","","","","","","","key","j","16.663669902912694","720","446","3_Stimuli/T_ambi40.png","朋友","Word","朋友","Match","j","true","Formal"
"","","","","","psychophysics","330","1477169","0.0-9.0-0.1-0.167","773","","f","","","","","","","","","","","","","key","f","16.664043478260787","720","446","3_Stimuli/T_ambi40.png","他人","Word","朋友","Mismatch","f","true","Formal"
"","","","","","psychophysics","331","1479152","0.0-9.0-0.1-0.168","831","","f","","","","","","","","","","","","","key","f","16.66369491525318","720","446","3_Stimuli/C_ambi40.png","他人","Word","自我","Mismatch","f","true","Formal"
"","","","","","psychophysics","332","1481262","0.0-9.0-0.1-0.169","948","","j","","","","","","","","","","","","","key","j","16.66370399999991","720","446","3_Stimuli/T_ambi40.png","朋友","Image","朋友","Match","j","true","Formal"
"","","","","","psychophysics","333","1483095","0.0-9.0-0.1-0.170","678","","f","","","","","","","","","","","","","key","f","16.663623853210666","720","446","3_Stimuli/C_ambi40.png","朋友","Word","自我","Mismatch","f","true","Formal"
"","","","","","psychophysics","334","1484945","0.0-9.0-0.1-0.171","695","","j","","","","","","","","","","","","","key","j","16.663754545454868","720","446","3_Stimuli/S_ambi40.png","朋友","Image","他人","Mismatch","f","false","Formal"
"","","","","","psychophysics","335","1486941","0.0-9.0-0.1-0.172","842","","f","","","","","","","","","","","","","key","f","16.664210084033346","720","446","3_Stimuli/S_ambi40.png","他人","Word","他人","Match","j","false","Formal"
"","","","","","psychophysics","336","1489046","0.0-9.0-0.1-0.173","947","","j","","","","","","","","","","","","","key","j","16.66455999999866","720","446","3_Stimuli/C_ambi40.png","自我","Word","自我","Match","j","true","Formal"
"","","","","","psychophysics","337","1490883","0.0-9.0-0.1-0.174","685","","f","","","","","","","","","","","","","key","f","16.66450458715687","720","446","3_Stimuli/S_ambi40.png","自我","Word","他人","Mismatch","f","true","Formal"
"","","","","","psychophysics","338","1493281","0.0-9.0-0.1-0.175","1242","","f","","","","","","","","","","","","","key","f","16.664246478872244","720","446","3_Stimuli/T_ambi40.png","他人","Image","朋友","Mismatch","f","true","Formal"
"","","","","","psychophysics","339","1495773","0.0-9.0-0.1-0.176","1341","","j","","","","","","","","","","","","","key","j","16.664033783783797","720","446","3_Stimuli/T_ambi40.png","他人","Word","朋友","Mismatch","f","false","Formal"
"","","","","","psychophysics","340","1498110","0.0-9.0-0.1-0.177","1180","","j","","","","","","","","","","","","","key","j","16.66408633093497","720","446","3_Stimuli/S_ambi40.png","他人","Image","他人","Match","j","true","Formal"
"","","","","","psychophysics","341","1499890","0.0-9.0-0.1-0.178","627","","j","","","","","","","","","","","","","key","j","16.664528301886264","720","446","3_Stimuli/T_ambi40.png","朋友","Image","朋友","Match","j","true","Formal"
"","","","","","psychophysics","342","1501992","0.0-9.0-0.1-0.179","946","","f","","","","","","","","","","","","","key","f","16.66328000000119","720","446","3_Stimuli/T_ambi40.png","自我","Word","朋友","Mismatch","f","true","Formal"
"","","","","","psychophysics","343","1504695","0.0-9.0-0.1-0.180","null","","null","","","","","","","","","","","","","key","null","16.664043478261366","720","446","3_Stimuli/S_ambi40.png","朋友","Word","他人","Mismatch","f","false","Formal"
"","","","","","psychophysics","344","1507019","0.0-9.0-0.1-0.181","1174","","f","","","","","","","","","","","","","key","f","16.663507246376906","720","446","3_Stimuli/S_ambi40.png","自我","Image","他人","Mismatch","f","true","Formal"
"","","","","","psychophysics","345","1509672","0.0-9.0-0.1-0.182","1494","","j","","","","","","","","","","","","","key","j","16.664303797469593","720","446","3_Stimuli/S_ambi40.png","他人","Word","他人","Match","j","true","Formal"
"","","","","","psychophysics","346","1511529","0.0-9.0-0.1-0.183","701","","j","","","","","","","","","","","","","key","j","16.664288288288592","720","446","3_Stimuli/C_ambi40.png","自我","Word","自我","Match","j","true","Formal"
"","","","","","psychophysics","347","1513698","0.0-9.0-0.1-0.184","1015","","f","","","","","","","","","","","","","key","f","16.66449612403079","720","446","3_Stimuli/C_ambi40.png","朋友","Image","自我","Mismatch","f","true","Formal"
"","","","","","psychophysics","348","1515507","0.0-9.0-0.1-0.185","647","","j","","","","","","","","","","","","","key","j","16.663560747662906","720","446","3_Stimuli/C_ambi40.png","自我","Image","自我","Match","j","true","Formal"
"","","","","","psychophysics","349","1517316","0.0-9.0-0.1-0.186","656","","j","","","","","","","","","","","","","key","j","16.663749999998362","720","446","3_Stimuli/S_ambi40.png","他人","Image","他人","Match","j","true","Formal"
"","","","","","psychophysics","350","1519201","0.0-9.0-0.1-0.187","725","","f","","","","","","","","","","","","","key","f","16.664053571427107","720","446","3_Stimuli/T_ambi40.png","朋友","Word","朋友","Match","j","false","Formal"
"","","","","","psychophysics","351","1521070","0.0-9.0-0.1-0.188","711","","f","","","","","","","","","","","","","key","f","16.66438738738715","720","446","3_Stimuli/T_ambi40.png","自我","Image","朋友","Mismatch","f","true","Formal"
"","","","","","psychophysics","352","1522739","0.0-9.0-0.1-0.189","516","","j","","","","","","","","","","","","","key","j","16.664424242423564","720","446","3_Stimuli/C_ambi40.png","自我","Image","自我","Match","j","true","Formal"
"","","","","","psychophysics","353","1524500","0.0-9.0-0.1-0.190","610","","f","","","","","","","","","","","","","key","f","16.66344761904551","720","446","3_Stimuli/T_ambi40.png","朋友","Word","朋友","Match","j","false","Formal"
"","","","","","psychophysics","354","1526452","0.0-9.0-0.1-0.191","793","","f","","","","","","","","","","","","","key","f","16.664094827585483","720","446","3_Stimuli/C_ambi40.png","他人","Image","自我","Mismatch","f","true","Formal"
"","","","","","psychophysics","355","1528228","0.0-9.0-0.1-0.192","620","","j","","","","","","","","","","","","","key","j","16.6633867924519","720","446","3_Stimuli/C_ambi40.png","自我","Word","自我","Match","j","true","Formal"
"","","","","","psychophysics","356","1530376","0.0-9.0-0.1-0.193","996","","f","","","","","","","","","","","","","key","f","16.663218749999942","720","446","3_Stimuli/C_ambi40.png","他人","Word","自我","Mismatch","f","true","Formal"
"","","","","","psychophysics","357","1532068","0.0-9.0-0.1-0.194","527","","j","","","","","","","","","","","","","key","j","16.664509999998845","720","446","3_Stimuli/T_ambi40.png","朋友","Image","朋友","Match","j","true","Formal"
"","","","","","psychophysics","358","1533892","0.0-9.0-0.1-0.195","668","","j","","","","","","","","","","","","","key","j","16.6644403669714","720","446","3_Stimuli/S_ambi40.png","他人","Word","他人","Match","j","true","Formal"
"","","","","","psychophysics","359","1535615","0.0-9.0-0.1-0.196","558","","f","","","","","","","","","","","","","key","f","16.664774509804214","720","446","3_Stimuli/T_ambi40.png","他人","Word","朋友","Mismatch","f","true","Formal"
"","","","","","psychophysics","360","1537430","0.0-9.0-0.1-0.197","664","","j","","","","","","","","","","","","","key","j","16.662768518519847","720","446","3_Stimuli/S_ambi40.png","朋友","Word","他人","Mismatch","f","false","Formal"
"","","","","","psychophysics","361","1539272","0.0-9.0-0.1-0.198","688","","j","","","","","","","","","","","","","key","j","16.663899082568722","720","446","3_Stimuli/C_ambi40.png","自我","Image","自我","Match","j","true","Formal"
"","","","","","psychophysics","362","1541251","0.0-9.0-0.1-0.199","828","","f","","","","","","","","","","","","","key","f","16.664068376068343","720","446","3_Stimuli/T_ambi40.png","朋友","Word","朋友","Match","j","false","Formal"
"","","","","","psychophysics","363","1543530","0.0-9.0-0.1-0.200","1128","","f","","","","","","","","","","","","","key","f","16.663691176471357","720","446","3_Stimuli/S_ambi40.png","他人","Image","他人","Match","j","false","Formal"
"","","","","","psychophysics","364","1545414","0.0-9.0-0.1-0.201","731","","f","","","","","","","","","","","","","key","f","16.663741071427857","720","446","3_Stimuli/S_ambi40.png","自我","Word","他人","Mismatch","f","true","Formal"
"","","","","","psychophysics","365","1547442","0.0-9.0-0.1-0.202","870","","f","","","","","","","","","","","","","key","f","16.664289256197993","720","446","3_Stimuli/S_ambi40.png","自我","Image","他人","Mismatch","f","true","Formal"
"","","","","","psychophysics","366","1549155","0.0-9.0-0.1-0.203","561","","f","","","","","","","","","","","","","key","f","16.66179411764503","720","446","3_Stimuli/T_ambi40.png","自我","Image","朋友","Mismatch","f","true","Formal"
"","","","","","psychophysics","367","1550803","0.0-9.0-0.1-0.204","488","","j","","","","","","","","","","","","","key","j","16.66432989690664","720","446","3_Stimuli/C_ambi40.png","自我","Word","自我","Match","j","true","Formal"
"","","","","","psychophysics","368","1552424","0.0-9.0-0.1-0.205","470","","j","","","","","","","","","","","","","key","j","16.663822916668625","720","446","3_Stimuli/T_ambi40.png","朋友","Word","朋友","Match","j","true","Formal"
"","","","","","psychophysics","369","1554395","0.0-9.0-0.1-0.206","808","","f","","","","","","","","","","","","","key","f","16.66353846153913","720","446","3_Stimuli/T_ambi40.png","朋友","Image","朋友","Match","j","false","Formal"
"","","","","","psychophysics","370","1556401","0.0-9.0-0.1-0.207","848","","f","","","","","","","","","","","","","key","f","16.66340336134313","720","446","3_Stimuli/C_ambi40.png","朋友","Image","自我","Mismatch","f","true","Formal"
"","","","","","psychophysics","371","1558045","0.0-9.0-0.1-0.208","491","","f","","","","","","","","","","","","","key","f","16.664886597940008","720","446","3_Stimuli/C_ambi40.png","自我","Image","自我","Match","j","false","Formal"
"","","","","","psychophysics","372","1560199","0.0-9.0-0.1-0.209","997","","f","","","","","","","","","","","","","key","f","16.665359374999753","720","446","3_Stimuli/T_ambi40.png","他人","Image","朋友","Mismatch","f","true","Formal"
"","","","","","psychophysics","373","1561902","0.0-9.0-0.1-0.210","550","","j","","","","","","","","","","","","","key","j","16.66324509803991","720","446","3_Stimuli/S_ambi40.png","他人","Image","他人","Match","j","true","Formal"
"","","","","","psychophysics","374","1563697","0.0-9.0-0.1-0.211","643","","f","","","","","","","","","","","","","key","f","16.664377358491656","720","446","3_Stimuli/C_ambi40.png","朋友","Word","自我","Mismatch","f","true","Formal"
"","","","","","psychophysics","375","1566077","0.0-9.0-0.1-0.212","1226","","f","","","","","","","","","","","","","key","f","16.664718309858433","720","446","3_Stimuli/C_ambi40.png","他人","Image","自我","Mismatch","f","true","Formal"
"","","","","","psychophysics","376","1567722","0.0-9.0-0.1-0.213","493","","j","","","","","","","","","","","","","key","j","16.66314285714417","720","446","3_Stimuli/S_ambi40.png","他人","Word","他人","Match","j","true","Formal"
"","","","","","psychophysics","377","1569528","0.0-9.0-0.1-0.214","646","","f","","","","","","","","","","","","","key","f","16.66371962616751","720","446","3_Stimuli/T_ambi40.png","自我","Word","朋友","Mismatch","f","true","Formal"
"","","","","","psychophysics","378","1571227","0.0-9.0-0.1-0.215","544","","j","","","","","","","","","","","","","key","j","16.66582178217958","720","446","3_Stimuli/S_ambi40.png","朋友","Image","他人","Mismatch","f","false","Formal"
"","","","","","psychophysics","379","1572987","0.0-9.0-0.1-0.216","604","","j","","","","","","","","","","","","","key","j","16.664257142856894","720","446","3_Stimuli/T_ambi40.png","朋友","Word","朋友","Match","j","true","Formal"
"","","","","","psychophysics","380","1574680","0.0-9.0-0.1-0.217","530","","j","","","","","","","","","","","","","key","j","16.66462999999989","720","446","3_Stimuli/T_ambi40.png","朋友","Image","朋友","Match","j","true","Formal"
"","","","","","psychophysics","381","1576410","0.0-9.0-0.1-0.218","577","","j","","","","","","","","","","","","","key","j","16.663708737863733","720","446","3_Stimuli/S_ambi40.png","他人","Image","他人","Match","j","true","Formal"
"","","","","","psychophysics","382","1578122","0.0-9.0-0.1-0.219","559","","j","","","","","","","","","","","","","key","j","16.6639803921571","720","446","3_Stimuli/S_ambi40.png","他人","Word","他人","Match","j","true","Formal"
"","","","","","psychophysics","383","1580026","0.0-9.0-0.1-0.220","748","","f","","","","","","","","","","","","","key","f","16.66344247787647","720","446","3_Stimuli/C_ambi40.png","他人","Image","自我","Mismatch","f","true","Formal"
"","","","","","psychophysics","384","1581736","0.0-9.0-0.1-0.221","554","","j","","","","","","","","","","","","","key","j","16.663852941176362","720","446","3_Stimuli/C_ambi40.png","自我","Word","自我","Match","j","true","Formal"
"","","","","","psychophysics","385","1583488","0.0-9.0-0.1-0.222","598","","j","","","","","","","","","","","","","key","j","16.66366346153798","720","446","3_Stimuli/C_ambi40.png","自我","Image","自我","Match","j","true","Formal"
"","","","","","psychophysics","386","1585223","0.0-9.0-0.1-0.223","580","","f","","","","","","","","","","","","","key","f","16.663834951456312","720","446","3_Stimuli/T_ambi40.png","自我","Image","朋友","Mismatch","f","true","Formal"
"","","","","","psychophysics","387","1586833","0.0-9.0-0.1-0.224","458","","j","","","","","","","","","","","","","key","j","16.665020833332772","720","446","3_Stimuli/S_ambi40.png","自我","Word","他人","Mismatch","f","false","Formal"
"","","","","","psychophysics","388","1588700","0.0-9.0-0.1-0.225","710","","f","","","","","","","","","","","","","key","f","16.663342342342812","720","446","3_Stimuli/T_ambi40.png","自我","Word","朋友","Mismatch","f","true","Formal"
"","","","","","psychophysics","389","1590776","0.0-9.0-0.1-0.226","912","","f","","","","","","","","","","","","","key","f","16.66324390244019","720","446","3_Stimuli/T_ambi40.png","他人","Image","朋友","Mismatch","f","true","Formal"
"","","","","","psychophysics","390","1593327","0.0-9.0-0.1-0.227","1398","","f","","","","","","","","","","","","","key","f","16.663618421053368","720","446","3_Stimuli/C_ambi40.png","朋友","Word","自我","Mismatch","f","true","Formal"
"","","","","","psychophysics","391","1595347","0.0-9.0-0.1-0.228","867","","f","","","","","","","","","","","","","key","f","16.663057851239515","720","446","3_Stimuli/S_ambi40.png","朋友","Word","他人","Mismatch","f","true","Formal"
"","","","","","psychophysics","392","1597101","0.0-9.0-0.1-0.229","601","","f","","","","","","","","","","","","","key","f","16.66529807692188","720","446","3_Stimuli/C_ambi40.png","朋友","Image","自我","Mismatch","f","true","Formal"
"","","","","","psychophysics","393","1598870","0.0-9.0-0.1-0.230","617","","j","","","","","","","","","","","","","key","j","16.663295238094758","720","446","3_Stimuli/C_ambi40.png","自我","Image","自我","Match","j","true","Formal"
"","","","","","psychophysics","394","1600860","0.0-9.0-0.1-0.231","832","","f","","","","","","","","","","","","","key","f","16.664550847456773","720","446","3_Stimuli/T_ambi40.png","他人","Word","朋友","Mismatch","f","true","Formal"
"","","","","","psychophysics","395","1602719","0.0-9.0-0.1-0.232","708","","j","","","","","","","","","","","","","key","j","16.663363636363382","720","446","3_Stimuli/T_ambi40.png","朋友","Image","朋友","Match","j","true","Formal"
"","","","","","psychophysics","396","1604605","0.0-9.0-0.1-0.233","733","","f","","","","","","","","","","","","","key","f","16.664017857141776","720","446","3_Stimuli/S_ambi40.png","自我","Image","他人","Mismatch","f","true","Formal"
"","","","","","psychophysics","397","1606887","0.0-9.0-0.1-0.234","1126","","f","","","","","","","","","","","","","key","f","16.664845588235252","720","446","3_Stimuli/S_ambi40.png","他人","Image","他人","Match","j","false","Formal"
"","","","","","psychophysics","398","1608734","0.0-9.0-0.1-0.235","690","","j","","","","","","","","","","","","","key","j","16.663800000001423","720","446","3_Stimuli/T_ambi40.png","朋友","Word","朋友","Match","j","true","Formal"
"","","","","","psychophysics","399","1610493","0.0-9.0-0.1-0.236","600","","j","","","","","","","","","","","","","key","j","16.664836538460804","720","446","3_Stimuli/C_ambi40.png","自我","Word","自我","Match","j","true","Formal"
"","","","","","psychophysics","400","1612347","0.0-9.0-0.1-0.237","703","","f","","","","","","","","","","","","","key","f","16.664581818182274","720","446","3_Stimuli/S_ambi40.png","朋友","Image","他人","Mismatch","f","true","Formal"
"","","","","","psychophysics","401","1614168","0.0-9.0-0.1-0.238","661","","j","","","","","","","","","","","","","key","j","16.66435185185185","720","446","3_Stimuli/S_ambi40.png","他人","Word","他人","Match","j","true","Formal"
"","","","","","psychophysics","402","1615927","0.0-9.0-0.1-0.239","605","","f","","","","","","","","","","","","","key","f","16.663714285713752","720","446","3_Stimuli/C_ambi40.png","他人","Word","自我","Mismatch","f","true","Formal"
"","","","","","html-keyboard-response","403","1624779","0.0-9.0-1.1","8848","<style>.context{color:white; font-size: 35px; line-height:40px}</style>                        <div><p class='context'>您正确回答了79% 的试次。</p><p class='context'>您的平均反应时为739毫秒。</p><p> <div style = 'color: green'><按任意键进入休息></div></p>","n","","","","","","","","","","","","","","","","","","","","","","","","",""
"","","","","","html-button-response","404","1659654","0.0-9.0-2.1","34872","
                  <p>您当前还剩余4组实验</p>
                  <p>现在是休息时间，当您结束休息后，您可以点击 结束休息 按钮 继续</p>
                  <p>建议休息时间还剩余<span id=""iii"">60</span>秒</p>","0","","","","","","","","","","","","","","","","","","","","","","","","",""
"","","","","","psychophysics","405","1661417","0.0-9.0-0.2-0.240","608","","j","","","","","","","","","","","","","key","j","16.664838095237723","720","446","3_Stimuli/S_ambi40.png","他人","Image","他人","Match","j","true","Formal"
"","","","","","psychophysics","406","1663058","0.0-9.0-0.2-0.241","485","","f","","","","","","","","","","","","","key","f","16.663711340207435","720","446","3_Stimuli/T_ambi40.png","自我","Word","朋友","Mismatch","f","true","Formal"
"","","","","","psychophysics","407","1664762","0.0-9.0-0.2-0.242","553","","f","","","","","","","","","","","","","key","f","16.66370297029688","720","446","3_Stimuli/T_ambi40.png","他人","Word","朋友","Mismatch","f","true","Formal"
"","","","","","psychophysics","408","1666408","0.0-9.0-0.2-0.243","489","","f","","","","","","","","","","","","","key","f","16.665556701032216","720","446","3_Stimuli/T_ambi40.png","他人","Image","朋友","Mismatch","f","true","Formal"
"","","","","","psychophysics","409","1667962","0.0-9.0-0.2-0.244","403","","j","","","","","","","","","","","","","key","j","16.66260869565177","720","446","3_Stimuli/S_ambi40.png","朋友","Image","他人","Mismatch","f","false","Formal"
"","","","","","psychophysics","410","1669723","0.0-9.0-0.2-0.245","599","","j","","","","","","","","","","","","","key","j","16.664307692307585","720","446","3_Stimuli/S_ambi40.png","他人","Word","他人","Match","j","true","Formal"
"","","","","","psychophysics","411","1671522","0.0-9.0-0.2-0.246","647","","j","","","","","","","","","","","","","key","j","16.66412264150831","720","446","3_Stimuli/T_ambi40.png","朋友","Word","朋友","Match","j","true","Formal"
"","","","","","psychophysics","412","1673301","0.0-9.0-0.2-0.247","627","","f","","","","","","","","","","","","","key","f","16.663333333332446","720","446","3_Stimuli/C_ambi40.png","朋友","Image","自我","Mismatch","f","true","Formal"
"","","","","","psychophysics","413","1675051","0.0-9.0-0.2-0.248","594","","j","","","","","","","","","","","","","key","j","16.664644230770556","720","446","3_Stimuli/T_ambi40.png","朋友","Word","朋友","Match","j","true","Formal"
"","","","","","psychophysics","414","1676855","0.0-9.0-0.2-0.249","648","","f","","","","","","","","","","","","","key","f","16.662934579438243","720","446","3_Stimuli/S_ambi40.png","自我","Word","他人","Mismatch","f","true","Formal"
"","","","","","psychophysics","415","1678494","0.0-9.0-0.2-0.250","487","","f","","","","","","","","","","","","","key","f","16.662309278349976","720","446","3_Stimuli/T_ambi40.png","朋友","Image","朋友","Match","j","false","Formal"
"","","","","","psychophysics","416","1680226","0.0-9.0-0.2-0.251","576","","f","","","","","","","","","","","","","key","f","16.663524271843468","720","446","3_Stimuli/C_ambi40.png","朋友","Word","自我","Mismatch","f","true","Formal"
"","","","","","psychophysics","417","1681870","0.0-9.0-0.2-0.252","488","","f","","","","","","","","","","","","","key","f","16.66443298969024","720","446","3_Stimuli/C_ambi40.png","自我","Image","自我","Match","j","false","Formal"
"","","","","","psychophysics","418","1683606","0.0-9.0-0.2-0.253","584","","f","","","","","","","","","","","","","key","f","16.664106796115853","720","446","3_Stimuli/C_ambi40.png","他人","Word","自我","Mismatch","f","true","Formal"
"","","","","","psychophysics","419","1685673","0.0-9.0-0.2-0.254","915","","j","","","","","","","","","","","","","key","j","16.665333333334363","720","446","3_Stimuli/T_ambi40.png","朋友","Image","朋友","Match","j","true","Formal"
"","","","","","psychophysics","420","1687579","0.0-9.0-0.2-0.255","746","","f","","","","","","","","","","","","","key","f","16.66423008849523","720","446","3_Stimuli/S_ambi40.png","他人","Word","他人","Match","j","false","Formal"
"","","","","","psychophysics","421","1689303","0.0-9.0-0.2-0.256","567","","j","","","","","","","","","","","","","key","j","16.66408823529377","720","446","3_Stimuli/C_ambi40.png","自我","Word","自我","Match","j","true","Formal"
"","","","","","psychophysics","422","1691086","0.0-9.0-0.2-0.257","632","","f","","","","","","","","","","","","","key","f","16.665980952379428","720","446","3_Stimuli/C_ambi40.png","他人","Image","自我","Mismatch","f","true","Formal"
"","","","","","psychophysics","423","1692810","0.0-9.0-0.2-0.258","573","","j","","","","","","","","","","","","","key","j","16.66476470588332","720","446","3_Stimuli/S_ambi40.png","他人","Image","他人","Match","j","true","Formal"
"","","","","","psychophysics","424","1694600","0.0-9.0-0.2-0.259","631","","j","","","","","","","","","","","","","key","j","16.663830188678507","720","446","3_Stimuli/C_ambi40.png","自我","Word","自我","Match","j","true","Formal"
"","","","","","psychophysics","425","1696230","0.0-9.0-0.2-0.260","477","","f","","","","","","","","","","","","","key","f","16.66428865979368","720","446","3_Stimuli/S_ambi40.png","朋友","Word","他人","Mismatch","f","true","Formal"
