"success","timeout","failed_images","failed_audio","failed_video","trial_type","trial_index","time_elapsed","internal_node_id","rt","stimulus","response","value","item_width_mm","item_height_mm","item_width_px","px2mm","view_dist_mm","item_width_deg","px2deg","scale_factor","win_width_deg","win_height_deg","view_history","response_type","key_press","avg_frame_time","center_x","center_y","image","word","target","valence","matchness","correct_response","correct","exp_condition"
"true","false","[]","[]","[]","preload","0","565","0.0-0.0","","","","","","","","","","","","","","","","","","","","","","","","","","","",""
"","","","","","html-keyboard-response","1","6163","0.0-1.0","5597","
     <p>您好，欢迎参加本次实验。</p>
     <p>为充分保障您的权利，请确保您已经知晓并同意《参与实验同意书》以及《数据公开知情同意书》。</p>
     <p>如果您未见过上述内容，请咨询实验员。</p>
     <p>如果您选择继续实验，则表示您已经清楚两份知情同意书的内容并同意。</p>
     <p> <div style = ""color: green""><按任意键至下页></div> </p>
     "," ","","","","","","","","","","","","","","","","","","","","","","","","",""
"","","","","","html-keyboard-response","2","7244","0.0-2.0-0.0","1081","
      <p>本实验首先需要您填写一些基本个人信息。</p>
      <p> <div style = ""color: green""><按任意键至下页></div></p>
      "," ","","","","","","","","","","","","","","","","","","","","","","","","",""
"","","","","","call-function","3","7245","0.0-2.0-1.0","","","","","","","","","","","","","","","","","","","","","","","","","","","",""
"","","","","","survey-html-form","4","10057","0.0-2.0-2.0","2811","","{""Q0"":""1005""}","","","","","","","","","","","","","","","","","","","","","","","","",""
"","","","","","html-button-response","5","11149","0.0-2.0-3.0","1091","<p style = 'color : white'>您的性别</p>","0","","","","","","","","","","","","","","","","","","","","","","","","",""
"","","","","","survey-html-form","6","17106","0.0-2.0-4.0","5956","","{""Q0"":""2003""}","","","","","","","","","","","","","","","","","","","","","","","","",""
"","","","","","survey-html-form","7","20537","0.0-2.0-5.0","3430","","{""Q0"":""5""}","","","","","","","","","","","","","","","","","","","","","","","","",""
"","","","","","virtual-chinrest","8","176510","0.0-3.0","155971","","","","85.6","53.98","408.9902341395918","4.777280886168341","598.57","8.179804682791836","50","1.1638419704601974","29.48","14.68","","","","","","","","","","","","","",""
"true","","","","","fullscreen","9","180182","0.0-4.0","","","","","","","","","","","","","","","","","","","","","","","","","","","",""
"","","","","","instructions","10","266139","0.0-5.0","85956","","","","","","","","","","","","","","[{""page_index"":0,""viewing_time"":4319},{""page_index"":1,""viewing_time"":39893},{""page_index"":2,""viewing_time"":33792},{""page_index"":3,""viewing_time"":7951}]","","","","","","","","","","","","",""
"","","","","","html-keyboard-response","11","269791","0.0-6.0","null","<count-down title=""""></count-down>","null","","","","","","","","","","","","","","","","","","","","","","","","",""
"","","","","","psychophysics","12","272497","0.0-7.0-0.0-0.0","null","","null","","","","","","","","","","","","","key","null","7.610203389830474","853.3333333333334","476","./1_3_Stimuli/S_ambi40.png","他人","Image","他人","Match","j","false","Practice"
"","","","","","html-keyboard-response","13","272798","0.0-7.0-0.0-1.0","null","<span class='add_' style='color:yellow; font-size: 70px;'> 太慢! </span>","null","","","","","","","","","","","","","","","","","","","","","","","","","feedback"
"","","","","","psychophysics","14","275501","0.0-7.0-0.0-0.1","null","","null","","","","","","","","","","","","","key","null","7.381213698630087","853.3333333333334","476","./1_3_Stimuli/C_ambi40.png","他人","Image","朋友","Mismatch","f","false","Practice"
"","","","","","html-keyboard-response","15","275802","0.0-7.0-0.0-1.1","null","<span class='add_' style='color:yellow; font-size: 70px;'> 太慢! </span>","null","","","","","","","","","","","","","","","","","","","","","","","","","feedback"
"","","","","","psychophysics","16","277074","0.0-7.0-0.0-0.2","120","","j","","","","","","","","","","","","","key","j","7.433864705882255","853.3333333333334","476","./1_3_Stimuli/C_ambi40.png","朋友","Word","朋友","Match","j","true","Practice"
"","","","","","html-keyboard-response","17","277376","0.0-7.0-0.0-1.2","null","<span style='color:yellow; font-size: 70px;'>过快! </span>","null","","","","","","","","","","","","","","","","","","","","","","","","","feedback"
"","","","","","psychophysics","18","278649","0.0-7.0-0.0-0.3","122","","j","","","","","","","","","","","","","key","j","7.3472616279069305","853.3333333333334","476","./1_3_Stimuli/T_ambi40.png","自我","Word","自我","Match","j","true","Practice"
"","","","","","html-keyboard-response","19","278950","0.0-7.0-0.0-1.3","null","<span style='color:yellow; font-size: 70px;'>过快! </span>","null","","","","","","","","","","","","","","","","","","","","","","","","","feedback"
"","","","","","psychophysics","20","280208","0.0-7.0-0.0-0.4","106","","f","","","","","","","","","","","","","key","f","7.43977380952371","853.3333333333334","476","./1_3_Stimuli/S_ambi40.png","自我","Word","他人","Mismatch","f","true","Practice"
"","","","","","html-keyboard-response","21","280509","0.0-7.0-0.0-1.4","null","<span style='color:yellow; font-size: 70px;'>过快! </span>","null","","","","","","","","","","","","","","","","","","","","","","","","","feedback"
"","","","","","psychophysics","22","283211","0.0-7.0-0.0-0.5","null","","null","","","","","","","","","","","","","key","null","7.2617951482481065","853.3333333333334","476","./1_3_Stimuli/S_ambi40.png","他人","Word","他人","Match","j","false","Practice"
"","","","","","html-keyboard-response","23","283511","0.0-7.0-0.0-1.5","null","<span class='add_' style='color:yellow; font-size: 70px;'> 太慢! </span>","null","","","","","","","","","","","","","","","","","","","","","","","","","feedback"
"","","","","","psychophysics","24","284735","0.0-7.0-0.0-0.6","72","","j","","","","","","","","","","","","","key","j","7.412601226993959","853.3333333333334","476","./1_3_Stimuli/S_ambi40.png","他人","Image","他人","Match","j","true","Practice"
"","","","","","html-keyboard-response","25","285037","0.0-7.0-0.0-1.6","null","<span style='color:yellow; font-size: 70px;'>过快! </span>","null","","","","","","","","","","","","","","","","","","","","","","","","","feedback"
"","","","","","psychophysics","26","287674","0.0-7.0-0.0-0.7","1485","","f","","","","","","","","","","","","","key","f","7.269759668508263","853.3333333333334","476","./1_3_Stimuli/S_ambi40.png","朋友","Image","他人","Mismatch","f","true","Practice"
"","","","","","html-keyboard-response","27","287976","0.0-7.0-0.0-1.7","null","<span style='color:GreenYellow; font-size: 70px;'>正确! </span>","null","","","","","","","","","","","","","","","","","","","","","","","","","feedback"
"","","","","","psychophysics","28","290679","0.0-7.0-0.0-0.8","null","","null","","","","","","","","","","","","","key","null","7.360361643835635","853.3333333333334","476","./1_3_Stimuli/S_ambi40.png","朋友","Word","他人","Mismatch","f","false","Practice"
"","","","","","html-keyboard-response","29","290981","0.0-7.0-0.0-1.8","null","<span class='add_' style='color:yellow; font-size: 70px;'> 太慢! </span>","null","","","","","","","","","","","","","","","","","","","","","","","","","feedback"
"","","","","","psychophysics","30","292256","0.0-7.0-0.0-0.9","122","","f","","","","","","","","","","","","","key","f","7.6557168674698035","853.3333333333334","476","./1_3_Stimuli/C_ambi40.png","自我","Image","朋友","Mismatch","f","true","Practice"
"","","","","","html-keyboard-response","31","292557","0.0-7.0-0.0-1.9","null","<span style='color:yellow; font-size: 70px;'>过快! </span>","null","","","","","","","","","","","","","","","","","","","","","","","","","feedback"
"","","","","","psychophysics","32","295258","0.0-7.0-0.0-0.10","null","","null","","","","","","","","","","","","","key","null","7.071272965879339","853.3333333333334","476","./1_3_Stimuli/T_ambi40.png","他人","Image","自我","Mismatch","f","false","Practice"
"","","","","","html-keyboard-response","33","295559","0.0-7.0-0.0-1.10","null","<span class='add_' style='color:yellow; font-size: 70px;'> 太慢! </span>","null","","","","","","","","","","","","","","","","","","","","","","","","","feedback"
"","","","","","psychophysics","34","298263","0.0-7.0-0.0-0.11","null","","null","","","","","","","","","","","","","key","null","7.3609999999999705","853.3333333333334","476","./1_3_Stimuli/S_ambi40.png","他人","Word","他人","Match","j","false","Practice"
"","","","","","html-keyboard-response","35","298564","0.0-7.0-0.0-1.11","null","<span class='add_' style='color:yellow; font-size: 70px;'> 太慢! </span>","null","","","","","","","","","","","","","","","","","","","","","","","","","feedback"
"","","","","","psychophysics","36","301267","0.0-7.0-0.0-0.12","null","","null","","","","","","","","","","","","","key","null","7.262402702702643","853.3333333333334","476","./1_3_Stimuli/T_ambi40.png","朋友","Image","自我","Mismatch","f","false","Practice"
"","","","","","html-keyboard-response","37","301568","0.0-7.0-0.0-1.12","null","<span class='add_' style='color:yellow; font-size: 70px;'> 太慢! </span>","null","","","","","","","","","","","","","","","","","","","","","","","","","feedback"
"","","","","","psychophysics","38","304270","0.0-7.0-0.0-0.13","null","","null","","","","","","","","","","","","","key","null","7.261948787061889","853.3333333333334","476","./1_3_Stimuli/C_ambi40.png","他人","Word","朋友","Mismatch","f","false","Practice"
"","","","","","html-keyboard-response","39","304572","0.0-7.0-0.0-1.13","null","<span class='add_' style='color:yellow; font-size: 70px;'> 太慢! </span>","null","","","","","","","","","","","","","","","","","","","","","","","","","feedback"
"","","","","","psychophysics","40","307275","0.0-7.0-0.0-0.14","null","","null","","","","","","","","","","","","","key","null","7.525472067038961","853.3333333333334","476","./1_3_Stimuli/S_ambi40.png","自我","Image","他人","Mismatch","f","false","Practice"
"","","","","","html-keyboard-response","41","307577","0.0-7.0-0.0-1.14","null","<span class='add_' style='color:yellow; font-size: 70px;'> 太慢! </span>","null","","","","","","","","","","","","","","","","","","","","","","","","","feedback"
"","","","","","psychophysics","42","310279","0.0-7.0-0.0-0.15","null","","null","","","","","","","","","","","","","key","null","7.261583783783843","853.3333333333334","476","./1_3_Stimuli/C_ambi40.png","朋友","Word","朋友","Match","j","false","Practice"
"","","","","","html-keyboard-response","43","310581","0.0-7.0-0.0-1.15","null","<span class='add_' style='color:yellow; font-size: 70px;'> 太慢! </span>","null","","","","","","","","","","","","","","","","","","","","","","","","","feedback"
"","","","","","psychophysics","44","313283","0.0-7.0-0.0-0.16","null","","null","","","","","","","","","","","","","key","null","7.4012994505495415","853.3333333333334","476","./1_3_Stimuli/T_ambi40.png","自我","Image","自我","Match","j","false","Practice"
"","","","","","html-keyboard-response","45","313585","0.0-7.0-0.0-1.16","null","<span class='add_' style='color:yellow; font-size: 70px;'> 太慢! </span>","null","","","","","","","","","","","","","","","","","","","","","","","","","feedback"
"","","","","","psychophysics","46","316289","0.0-7.0-0.0-0.17","null","","null","","","","","","","","","","","","","key","null","7.340912806539484","853.3333333333334","476","./1_3_Stimuli/C_ambi40.png","朋友","Image","朋友","Match","j","false","Practice"
"","","","","","html-keyboard-response","47","316592","0.0-7.0-0.0-1.17","null","<span class='add_' style='color:yellow; font-size: 70px;'> 太慢! </span>","null","","","","","","","","","","","","","","","","","","","","","","","","","feedback"
"","","","","","psychophysics","48","319293","0.0-7.0-0.0-0.18","null","","null","","","","","","","","","","","","","key","null","7.485100278551567","853.3333333333334","476","./1_3_Stimuli/T_ambi40.png","自我","Word","自我","Match","j","false","Practice"
"","","","","","html-keyboard-response","49","319595","0.0-7.0-0.0-1.18","null","<span class='add_' style='color:yellow; font-size: 70px;'> 太慢! </span>","null","","","","","","","","","","","","","","","","","","","","","","","","","feedback"
"","","","","","psychophysics","50","322296","0.0-7.0-0.0-0.19","null","","null","","","","","","","","","","","","","key","null","7.341239782016311","853.3333333333334","476","./1_3_Stimuli/C_ambi40.png","自我","Word","朋友","Mismatch","f","false","Practice"
"","","","","","html-keyboard-response","51","322598","0.0-7.0-0.0-1.19","null","<span class='add_' style='color:yellow; font-size: 70px;'> 太慢! </span>","null","","","","","","","","","","","","","","","","","","","","","","","","","feedback"
"","","","","","psychophysics","52","325299","0.0-7.0-0.0-0.20","null","","null","","","","","","","","","","","","","key","null","7.281362162162141","853.3333333333334","476","./1_3_Stimuli/T_ambi40.png","朋友","Word","自我","Mismatch","f","false","Practice"
"","","","","","html-keyboard-response","53","325600","0.0-7.0-0.0-1.20","null","<span class='add_' style='color:yellow; font-size: 70px;'> 太慢! </span>","null","","","","","","","","","","","","","","","","","","","","","","","","","feedback"
"","","","","","psychophysics","54","328099","0.0-7.0-0.0-0.21","1347","","f","","","","","","","","","","","","","key","f","7.2467238372091956","853.3333333333334","476","./1_3_Stimuli/T_ambi40.png","自我","Image","自我","Match","j","false","Practice"
"","","","","","html-keyboard-response","55","328401","0.0-7.0-0.0-1.21","null","<span style='color:red; font-size: 70px;'>错误! </span>","null","","","","","","","","","","","","","","","","","","","","","","","","","feedback"
"","","","","","psychophysics","56","331104","0.0-7.0-0.0-0.22","null","","null","","","","","","","","","","","","","key","null","7.632048158640261","853.3333333333334","476","./1_3_Stimuli/T_ambi40.png","他人","Word","自我","Mismatch","f","false","Practice"
"","","","","","html-keyboard-response","57","331405","0.0-7.0-0.0-1.22","null","<span class='add_' style='color:yellow; font-size: 70px;'> 太慢! </span>","null","","","","","","","","","","","","","","","","","","","","","","","","","feedback"
"","","","","","psychophysics","58","334107","0.0-7.0-0.0-0.23","null","","null","","","","","","","","","","","","","key","null","7.20352673796793","853.3333333333334","476","./1_3_Stimuli/C_ambi40.png","朋友","Image","朋友","Match","j","false","Practice"
"","","","","","html-keyboard-response","59","334407","0.0-7.0-0.0-1.23","null","<span class='add_' style='color:yellow; font-size: 70px;'> 太慢! </span>","null","","","","","","","","","","","","","","","","","","","","","","","","","feedback"
"","","","","","html-keyboard-response","60","338902","0.0-7.0-1.0-0.0","4494","<style>.context{color:white; font-size: 35px; line-height:40px}</style>                        <div><p class='context'>您正确回答了25% 的试次。</p><p class='context'>您的平均反应时为338毫秒。</p><p> <div style = 'color: green'><按空格键至下页></div></p>"," ","","","","","","","","","","","","","","","","","","","","","","","","",""
"","","","","","instructions","61","404272","0.0-7.0-1.0-1.0","65368","","","","","","","","","","","","","","[{""page_index"":0,""viewing_time"":3395},{""page_index"":1,""viewing_time"":31223},{""page_index"":2,""viewing_time"":2748},{""page_index"":1,""viewing_time"":2461},{""page_index"":2,""viewing_time"":2978},{""page_index"":1,""viewing_time"":9200},{""page_index"":2,""viewing_time"":3658},{""page_index"":1,""viewing_time"":1363},{""page_index"":2,""viewing_time"":6778},{""page_index"":1,""viewing_time"":795},{""page_index"":2,""viewing_time"":769}]","","","","","","","","","","","","",""
"","","","","","psychophysics","62","405835","0.0-7.1-0.1-0.24","411","","j","","","","","","","","","","","","","key","j","7.4804541062800425","853.3333333333334","476","./1_3_Stimuli/C_ambi40.png","朋友","Image","朋友","Match","j","true","Practice"
"","","","","","html-keyboard-response","63","406137","0.0-7.1-0.1-1.24","null","<span style='color:GreenYellow; font-size: 70px;'>正确! </span>","null","","","","","","","","","","","","","","","","","","","","","","","","","feedback"
"","","","","","psychophysics","64","407574","0.0-7.1-0.1-0.25","286","","j","","","","","","","","","","","","","key","j","7.224181818181703","853.3333333333334","476","./1_3_Stimuli/C_ambi40.png","自我","Image","朋友","Mismatch","f","false","Practice"
"","","","","","html-keyboard-response","65","407876","0.0-7.1-0.1-1.25","null","<span style='color:red; font-size: 70px;'>错误! </span>","null","","","","","","","","","","","","","","","","","","","","","","","","","feedback"
"","","","","","psychophysics","66","410580","0.0-7.1-0.1-0.26","null","","null","","","","","","","","","","","","","key","null","7.610700564971818","853.3333333333334","476","./1_3_Stimuli/C_ambi40.png","朋友","Image","朋友","Match","j","false","Practice"
"","","","","","html-keyboard-response","67","410881","0.0-7.1-0.1-1.26","null","<span class='add_' style='color:yellow; font-size: 70px;'> 太慢! </span>","null","","","","","","","","","","","","","","","","","","","","","","","","","feedback"
"","","","","","psychophysics","68","412351","0.0-7.1-0.1-0.27","317","","f","","","","","","","","","","","","","key","f","7.218826732673166","853.3333333333334","476","./1_3_Stimuli/S_ambi40.png","他人","Image","他人","Match","j","false","Practice"
"","","","","","html-keyboard-response","69","412653","0.0-7.1-0.1-1.27","null","<span style='color:red; font-size: 70px;'>错误! </span>","null","","","","","","","","","","","","","","","","","","","","","","","","","feedback"
"","","","","","psychophysics","70","414654","0.0-7.1-0.1-0.28","850","","j","","","","","","","","","","","","","key","j","7.353616236162207","853.3333333333334","476","./1_3_Stimuli/T_ambi40.png","他人","Image","自我","Mismatch","f","false","Practice"
"","","","","","html-keyboard-response","71","414956","0.0-7.1-0.1-1.28","null","<span style='color:red; font-size: 70px;'>错误! </span>","null","","","","","","","","","","","","","","","","","","","","","","","","","feedback"
"","","","","","psychophysics","72","416379","0.0-7.1-0.1-0.29","272","","f","","","","","","","","","","","","","key","f","7.416439790575806","853.3333333333334","476","./1_3_Stimuli/S_ambi40.png","他人","Word","他人","Match","j","false","Practice"
"","","","","","html-keyboard-response","73","416682","0.0-7.1-0.1-1.29","null","<span style='color:red; font-size: 70px;'>错误! </span>","null","","","","","","","","","","","","","","","","","","","","","","","","","feedback"
"","","","","","psychophysics","74","418299","0.0-7.1-0.1-0.30","466","","j","","","","","","","","","","","","","key","j","7.603900000000085","853.3333333333334","476","./1_3_Stimuli/C_ambi40.png","朋友","Word","朋友","Match","j","true","Practice"
"","","","","","html-keyboard-response","75","418600","0.0-7.1-0.1-1.30","null","<span style='color:GreenYellow; font-size: 70px;'>正确! </span>","null","","","","","","","","","","","","","","","","","","","","","","","","","feedback"
"","","","","","psychophysics","76","420407","0.0-7.1-0.1-0.31","656","","f","","","","","","","","","","","","","key","f","7.853362445414776","853.3333333333334","476","./1_3_Stimuli/T_ambi40.png","朋友","Image","自我","Mismatch","f","true","Practice"
"","","","","","html-keyboard-response","77","420708","0.0-7.1-0.1-1.31","null","<span style='color:GreenYellow; font-size: 70px;'>正确! </span>","null","","","","","","","","","","","","","","","","","","","","","","","","","feedback"
"","","","","","psychophysics","78","422593","0.0-7.1-0.1-0.32","734","","j","","","","","","","","","","","","","key","j","7.294844357976745","853.3333333333334","476","./1_3_Stimuli/T_ambi40.png","自我","Image","自我","Match","j","true","Practice"
"","","","","","html-keyboard-response","79","422895","0.0-7.1-0.1-1.32","null","<span style='color:GreenYellow; font-size: 70px;'>正确! </span>","null","","","","","","","","","","","","","","","","","","","","","","","","","feedback"
"","","","","","psychophysics","80","424735","0.0-7.1-0.1-0.33","689","","f","","","","","","","","","","","","","key","f","7.332516000000061","853.3333333333334","476","./1_3_Stimuli/T_ambi40.png","朋友","Word","自我","Mismatch","f","true","Practice"
"","","","","","html-keyboard-response","81","425036","0.0-7.1-0.1-1.33","null","<span style='color:GreenYellow; font-size: 70px;'>正确! </span>","null","","","","","","","","","","","","","","","","","","","","","","","","","feedback"
"","","","","","psychophysics","82","427035","0.0-7.1-0.1-0.34","847","","f","","","","","","","","","","","","","key","f","7.608865900383103","853.3333333333334","476","./1_3_Stimuli/C_ambi40.png","朋友","Word","朋友","Match","j","false","Practice"
"","","","","","html-keyboard-response","83","427336","0.0-7.1-0.1-1.34","null","<span style='color:red; font-size: 70px;'>错误! </span>","null","","","","","","","","","","","","","","","","","","","","","","","","","feedback"
"","","","","","psychophysics","84","429141","0.0-7.1-0.1-0.35","654","","j","","","","","","","","","","","","","key","j","7.28107287449388","853.3333333333334","476","./1_3_Stimuli/T_ambi40.png","自我","Word","自我","Match","j","true","Practice"
"","","","","","html-keyboard-response","85","429442","0.0-7.1-0.1-1.35","null","<span style='color:GreenYellow; font-size: 70px;'>正确! </span>","null","","","","","","","","","","","","","","","","","","","","","","","","","feedback"
"","","","","","psychophysics","86","431113","0.0-7.1-0.1-0.36","519","","j","","","","","","","","","","","","","key","j","7.245160869565165","853.3333333333334","476","./1_3_Stimuli/T_ambi40.png","自我","Word","自我","Match","j","true","Practice"
"","","","","","html-keyboard-response","87","431414","0.0-7.1-0.1-1.36","null","<span style='color:GreenYellow; font-size: 70px;'>正确! </span>","null","","","","","","","","","","","","","","","","","","","","","","","","","feedback"
"","","","","","psychophysics","88","433304","0.0-7.1-0.1-0.37","738","","f","","","","","","","","","","","","","key","f","7.496764940239139","853.3333333333334","476","./1_3_Stimuli/C_ambi40.png","他人","Word","朋友","Mismatch","f","true","Practice"
"","","","","","html-keyboard-response","89","433604","0.0-7.1-0.1-1.37","null","<span style='color:GreenYellow; font-size: 70px;'>正确! </span>","null","","","","","","","","","","","","","","","","","","","","","","","","","feedback"
"","","","","","psychophysics","90","435320","0.0-7.1-0.1-0.38","565","","f","","","","","","","","","","","","","key","f","7.362443965517239","853.3333333333334","476","./1_3_Stimuli/S_ambi40.png","他人","Word","他人","Match","j","false","Practice"
"","","","","","html-keyboard-response","91","435621","0.0-7.1-0.1-1.38","null","<span style='color:red; font-size: 70px;'>错误! </span>","null","","","","","","","","","","","","","","","","","","","","","","","","","feedback"
"","","","","","psychophysics","92","437805","0.0-7.1-0.1-0.39","1032","","f","","","","","","","","","","","","","key","f","7.3673796610168765","853.3333333333334","476","./1_3_Stimuli/S_ambi40.png","朋友","Word","他人","Mismatch","f","true","Practice"
"","","","","","html-keyboard-response","93","438106","0.0-7.1-0.1-1.39","null","<span style='color:GreenYellow; font-size: 70px;'>正确! </span>","null","","","","","","","","","","","","","","","","","","","","","","","","","feedback"
"","","","","","psychophysics","94","440175","0.0-7.1-0.1-0.40","918","","f","","","","","","","","","","","","","key","f","7.2625406360424","853.3333333333334","476","./1_3_Stimuli/C_ambi40.png","他人","Image","朋友","Mismatch","f","true","Practice"
"","","","","","html-keyboard-response","95","440476","0.0-7.1-0.1-1.40","null","<span style='color:GreenYellow; font-size: 70px;'>正确! </span>","null","","","","","","","","","","","","","","","","","","","","","","","","","feedback"
"","","","","","psychophysics","96","442445","0.0-7.1-0.1-0.41","818","","f","","","","","","","","","","","","","key","f","7.587123552123561","853.3333333333334","476","./1_3_Stimuli/S_ambi40.png","自我","Image","他人","Mismatch","f","true","Practice"
"","","","","","html-keyboard-response","97","442747","0.0-7.1-0.1-1.41","null","<span style='color:GreenYellow; font-size: 70px;'>正确! </span>","null","","","","","","","","","","","","","","","","","","","","","","","","","feedback"
"","","","","","psychophysics","98","444683","0.0-7.1-0.1-0.42","785","","f","","","","","","","","","","","","","key","f","7.14963333333338","853.3333333333334","476","./1_3_Stimuli/C_ambi40.png","自我","Word","朋友","Mismatch","f","true","Practice"
"","","","","","html-keyboard-response","99","444985","0.0-7.1-0.1-1.42","null","<span style='color:GreenYellow; font-size: 70px;'>正确! </span>","null","","","","","","","","","","","","","","","","","","","","","","","","","feedback"
"","","","","","psychophysics","100","446790","0.0-7.1-0.1-0.43","653","","f","","","","","","","","","","","","","key","f","7.194542168674666","853.3333333333334","476","./1_3_Stimuli/S_ambi40.png","自我","Word","他人","Mismatch","f","true","Practice"
"","","","","","html-keyboard-response","101","447091","0.0-7.1-0.1-1.43","null","<span style='color:GreenYellow; font-size: 70px;'>正确! </span>","null","","","","","","","","","","","","","","","","","","","","","","","","","feedback"
"","","","","","psychophysics","102","448924","0.0-7.1-0.1-0.44","681","","f","","","","","","","","","","","","","key","f","7.275697211155193","853.3333333333334","476","./1_3_Stimuli/S_ambi40.png","他人","Image","他人","Match","j","false","Practice"
"","","","","","html-keyboard-response","103","449226","0.0-7.1-0.1-1.44","null","<span style='color:red; font-size: 70px;'>错误! </span>","null","","","","","","","","","","","","","","","","","","","","","","","","","feedback"
"","","","","","psychophysics","104","451010","0.0-7.1-0.1-0.45","632","","f","","","","","","","","","","","","","key","f","7.28704115226333","853.3333333333334","476","./1_3_Stimuli/S_ambi40.png","朋友","Image","他人","Mismatch","f","true","Practice"
"","","","","","html-keyboard-response","105","451312","0.0-7.1-0.1-1.45","null","<span style='color:GreenYellow; font-size: 70px;'>正确! </span>","null","","","","","","","","","","","","","","","","","","","","","","","","","feedback"
"","","","","","psychophysics","106","453112","0.0-7.1-0.1-0.46","649","","j","","","","","","","","","","","","","key","j","7.1944939759036295","853.3333333333334","476","./1_3_Stimuli/T_ambi40.png","自我","Image","自我","Match","j","true","Practice"
"","","","","","html-keyboard-response","107","453413","0.0-7.1-0.1-1.46","null","<span style='color:GreenYellow; font-size: 70px;'>正确! </span>","null","","","","","","","","","","","","","","","","","","","","","","","","","feedback"
"","","","","","psychophysics","108","455267","0.0-7.1-0.1-0.47","703","","f","","","","","","","","","","","","","key","f","7.159460937500171","853.3333333333334","476","./1_3_Stimuli/T_ambi40.png","他人","Word","自我","Mismatch","f","true","Practice"
"","","","","","html-keyboard-response","109","455568","0.0-7.1-0.1-1.47","null","<span style='color:GreenYellow; font-size: 70px;'>正确! </span>","null","","","","","","","","","","","","","","","","","","","","","","","","","feedback"
"","","","","","html-keyboard-response","110","458369","0.0-7.1-1.1-0.1","2800","<style>.context{color:white; font-size: 35px; line-height:40px}</style>                        <div><p class='context'>您正确回答了67% 的试次。</p><p class='context'>您的平均反应时为691毫秒。</p><p> <div style = 'color: green'><按空格键至下页></div></p>"," ","","","","","","","","","","","","","","","","","","","","","","","","",""
"","","","","","instructions","111","465225","0.0-7.1-1.1-1.1","6855","","","","","","","","","","","","","","[{""page_index"":0,""viewing_time"":1392},{""page_index"":1,""viewing_time"":4720},{""page_index"":2,""viewing_time"":742}]","","","","","","","","","","","","",""
"","","","","","psychophysics","112","466990","0.0-7.2-0.2-0.48","612","","j","","","","","","","","","","","","","key","j","7.170342857143082","853.3333333333334","476","./1_3_Stimuli/T_ambi40.png","自我","Image","自我","Match","j","true","Practice"
"","","","","","html-keyboard-response","113","467292","0.0-7.2-0.2-1.48","null","<span style='color:GreenYellow; font-size: 70px;'>正确! </span>","null","","","","","","","","","","","","","","","","","","","","","","","","","feedback"
"","","","","","psychophysics","114","468989","0.0-7.2-0.2-0.49","545","","f","","","","","","","","","","","","","key","f","7.600432432432311","853.3333333333334","476","./1_3_Stimuli/T_ambi40.png","他人","Image","自我","Mismatch","f","true","Practice"
"","","","","","html-keyboard-response","115","469291","0.0-7.2-0.2-1.49","null","<span style='color:GreenYellow; font-size: 70px;'>正确! </span>","null","","","","","","","","","","","","","","","","","","","","","","","","","feedback"
"","","","","","psychophysics","116","471218","0.0-7.2-0.2-0.50","775","","f","","","","","","","","","","","","","key","f","7.513117187500029","853.3333333333334","476","./1_3_Stimuli/C_ambi40.png","他人","Image","朋友","Mismatch","f","true","Practice"
"","","","","","html-keyboard-response","117","471520","0.0-7.2-0.2-1.50","null","<span style='color:GreenYellow; font-size: 70px;'>正确! </span>","null","","","","","","","","","","","","","","","","","","","","","","","","","feedback"
"","","","","","psychophysics","118","473404","0.0-7.2-0.2-0.51","732","","j","","","","","","","","","","","","","key","j","7.155709923664019","853.3333333333334","476","./1_3_Stimuli/S_ambi40.png","他人","Image","他人","Match","j","true","Practice"
"","","","","","html-keyboard-response","119","473705","0.0-7.2-0.2-1.51","null","<span style='color:GreenYellow; font-size: 70px;'>正确! </span>","null","","","","","","","","","","","","","","","","","","","","","","","","","feedback"
"","","","","","psychophysics","120","475400","0.0-7.2-0.2-0.52","544","","j","","","","","","","","","","","","","key","j","7.4005394736841","853.3333333333334","476","./1_3_Stimuli/S_ambi40.png","他人","Word","他人","Match","j","true","Practice"
"","","","","","html-keyboard-response","121","475702","0.0-7.2-0.2-1.52","null","<span style='color:GreenYellow; font-size: 70px;'>正确! </span>","null","","","","","","","","","","","","","","","","","","","","","","","","","feedback"
"","","","","","psychophysics","122","477402","0.0-7.2-0.2-0.53","549","","j","","","","","","","","","","","","","key","j","7.208491452991501","853.3333333333334","476","./1_3_Stimuli/T_ambi40.png","自我","Word","自我","Match","j","true","Practice"
"","","","","","html-keyboard-response","123","477704","0.0-7.2-0.2-1.53","null","<span style='color:GreenYellow; font-size: 70px;'>正确! </span>","null","","","","","","","","","","","","","","","","","","","","","","","","","feedback"
"","","","","","psychophysics","124","479476","0.0-7.2-0.2-0.54","622","","f","","","","","","","","","","","","","key","f","7.47332203389842","853.3333333333334","476","./1_3_Stimuli/C_ambi40.png","朋友","Word","朋友","Match","j","false","Practice"
"","","","","","html-keyboard-response","125","479778","0.0-7.2-0.2-1.54","null","<span style='color:red; font-size: 70px;'>错误! </span>","null","","","","","","","","","","","","","","","","","","","","","","","","","feedback"
"","","","","","psychophysics","126","481576","0.0-7.2-0.2-0.55","646","","f","","","","","","","","","","","","","key","f","7.722926406926592","853.3333333333334","476","./1_3_Stimuli/S_ambi40.png","朋友","Image","他人","Mismatch","f","true","Practice"
"","","","","","html-keyboard-response","127","481876","0.0-7.2-0.2-1.55","null","<span style='color:GreenYellow; font-size: 70px;'>正确! </span>","null","","","","","","","","","","","","","","","","","","","","","","","","","feedback"
"","","","","","psychophysics","128","483771","0.0-7.2-0.2-0.56","743","","j","","","","","","","","","","","","","key","j","7.715193415637925","853.3333333333334","476","./1_3_Stimuli/S_ambi40.png","他人","Word","他人","Match","j","true","Practice"
"","","","","","html-keyboard-response","129","484072","0.0-7.2-0.2-1.56","null","<span style='color:GreenYellow; font-size: 70px;'>正确! </span>","null","","","","","","","","","","","","","","","","","","","","","","","","","feedback"
"","","","","","psychophysics","130","486073","0.0-7.2-0.2-0.57","849","","j","","","","","","","","","","","","","key","j","7.246570909091018","853.3333333333334","476","./1_3_Stimuli/T_ambi40.png","朋友","Image","自我","Mismatch","f","false","Practice"
"","","","","","html-keyboard-response","131","486374","0.0-7.2-0.2-1.57","null","<span style='color:red; font-size: 70px;'>错误! </span>","null","","","","","","","","","","","","","","","","","","","","","","","","","feedback"
"","","","","","psychophysics","132","488275","0.0-7.2-0.2-0.58","750","","f","","","","","","","","","","","","","key","f","7.233534615384773","853.3333333333334","476","./1_3_Stimuli/S_ambi40.png","朋友","Word","他人","Mismatch","f","true","Practice"
"","","","","","html-keyboard-response","133","488576","0.0-7.2-0.2-1.58","null","<span style='color:GreenYellow; font-size: 70px;'>正确! </span>","null","","","","","","","","","","","","","","","","","","","","","","","","","feedback"
"","","","","","psychophysics","134","490447","0.0-7.2-0.2-0.59","719","","f","","","","","","","","","","","","","key","f","7.595485714285834","853.3333333333334","476","./1_3_Stimuli/T_ambi40.png","朋友","Word","自我","Mismatch","f","true","Practice"
"","","","","","html-keyboard-response","135","490748","0.0-7.2-0.2-1.59","null","<span style='color:GreenYellow; font-size: 70px;'>正确! </span>","null","","","","","","","","","","","","","","","","","","","","","","","","","feedback"
"","","","","","psychophysics","136","492564","0.0-7.2-0.2-0.60","665","","j","","","","","","","","","","","","","key","j","7.3971387755102","853.3333333333334","476","./1_3_Stimuli/T_ambi40.png","自我","Word","自我","Match","j","true","Practice"
"","","","","","html-keyboard-response","137","492865","0.0-7.2-0.2-1.60","null","<span style='color:GreenYellow; font-size: 70px;'>正确! </span>","null","","","","","","","","","","","","","","","","","","","","","","","","","feedback"
"","","","","","psychophysics","138","494637","0.0-7.2-0.2-0.61","621","","f","","","","","","","","","","","","","key","f","7.980619909502281","853.3333333333334","476","./1_3_Stimuli/S_ambi40.png","自我","Word","他人","Mismatch","f","true","Practice"
"","","","","","html-keyboard-response","139","494938","0.0-7.2-0.2-1.61","null","<span style='color:GreenYellow; font-size: 70px;'>正确! </span>","null","","","","","","","","","","","","","","","","","","","","","","","","","feedback"
"","","","","","psychophysics","140","496811","0.0-7.2-0.2-0.62","721","","f","","","","","","","","","","","","","key","f","7.269093750000138","853.3333333333334","476","./1_3_Stimuli/C_ambi40.png","朋友","Image","朋友","Match","j","false","Practice"
"","","","","","html-keyboard-response","141","497112","0.0-7.2-0.2-1.62","null","<span style='color:red; font-size: 70px;'>错误! </span>","null","","","","","","","","","","","","","","","","","","","","","","","","","feedback"
"","","","","","psychophysics","142","498911","0.0-7.2-0.2-0.63","648","","f","","","","","","","","","","","","","key","f","7.311918367346872","853.3333333333334","476","./1_3_Stimuli/T_ambi40.png","他人","Word","自我","Mismatch","f","true","Practice"
"","","","","","html-keyboard-response","143","499212","0.0-7.2-0.2-1.63","null","<span style='color:GreenYellow; font-size: 70px;'>正确! </span>","null","","","","","","","","","","","","","","","","","","","","","","","","","feedback"
"","","","","","psychophysics","144","501319","0.0-7.2-0.2-0.64","956","","j","","","","","","","","","","","","","key","j","7.281173611111121","853.3333333333334","476","./1_3_Stimuli/C_ambi40.png","朋友","Word","朋友","Match","j","true","Practice"
"","","","","","html-keyboard-response","145","501620","0.0-7.2-0.2-1.64","null","<span style='color:GreenYellow; font-size: 70px;'>正确! </span>","null","","","","","","","","","","","","","","","","","","","","","","","","","feedback"
"","","","","","psychophysics","146","503309","0.0-7.2-0.2-0.65","536","","f","","","","","","","","","","","","","key","f","7.211914163090083","853.3333333333334","476","./1_3_Stimuli/S_ambi40.png","自我","Image","他人","Mismatch","f","true","Practice"
"","","","","","html-keyboard-response","147","503610","0.0-7.2-0.2-1.65","null","<span style='color:GreenYellow; font-size: 70px;'>正确! </span>","null","","","","","","","","","","","","","","","","","","","","","","","","","feedback"
"","","","","","psychophysics","148","505545","0.0-7.2-0.2-0.66","783","","j","","","","","","","","","","","","","key","j","7.230398496240465","853.3333333333334","476","./1_3_Stimuli/T_ambi40.png","自我","Image","自我","Match","j","true","Practice"
"","","","","","html-keyboard-response","149","505846","0.0-7.2-0.2-1.66","null","<span style='color:GreenYellow; font-size: 70px;'>正确! </span>","null","","","","","","","","","","","","","","","","","","","","","","","","","feedback"
"","","","","","psychophysics","150","507614","0.0-7.2-0.2-0.67","616","","f","","","","","","","","","","","","","key","f","7.141260162601626","853.3333333333334","476","./1_3_Stimuli/S_ambi40.png","他人","Image","他人","Match","j","false","Practice"
"","","","","","html-keyboard-response","151","507915","0.0-7.2-0.2-1.67","null","<span style='color:red; font-size: 70px;'>错误! </span>","null","","","","","","","","","","","","","","","","","","","","","","","","","feedback"
"","","","","","psychophysics","152","509624","0.0-7.2-0.2-0.68","558","","f","","","","","","","","","","","","","key","f","6.971946502057691","853.3333333333334","476","./1_3_Stimuli/C_ambi40.png","他人","Word","朋友","Mismatch","f","true","Practice"
"","","","","","html-keyboard-response","153","509926","0.0-7.2-0.2-1.68","null","<span style='color:GreenYellow; font-size: 70px;'>正确! </span>","null","","","","","","","","","","","","","","","","","","","","","","","","","feedback"
"","","","","","psychophysics","154","511727","0.0-7.2-0.2-0.69","650","","f","","","","","","","","","","","","","key","f","7.193556000000099","853.3333333333334","476","./1_3_Stimuli/C_ambi40.png","自我","Image","朋友","Mismatch","f","true","Practice"
"","","","","","html-keyboard-response","155","512028","0.0-7.2-0.2-1.69","null","<span style='color:GreenYellow; font-size: 70px;'>正确! </span>","null","","","","","","","","","","","","","","","","","","","","","","","","","feedback"
"","","","","","psychophysics","156","513829","0.0-7.2-0.2-0.70","650","","f","","","","","","","","","","","","","key","f","7.52730672268912","853.3333333333334","476","./1_3_Stimuli/C_ambi40.png","自我","Word","朋友","Mismatch","f","true","Practice"
"","","","","","html-keyboard-response","157","514131","0.0-7.2-0.2-1.70","null","<span style='color:GreenYellow; font-size: 70px;'>正确! </span>","null","","","","","","","","","","","","","","","","","","","","","","","","","feedback"
"","","","","","psychophysics","158","515906","0.0-7.2-0.2-0.71","625","","f","","","","","","","","","","","","","key","f","8.090321100917443","853.3333333333334","476","./1_3_Stimuli/C_ambi40.png","朋友","Image","朋友","Match","j","false","Practice"
"","","","","","html-keyboard-response","159","516208","0.0-7.2-0.2-1.71","null","<span style='color:red; font-size: 70px;'>错误! </span>","null","","","","","","","","","","","","","","","","","","","","","","","","","feedback"
"","","","","","html-keyboard-response","160","518078","0.0-7.2-1.2-0.2","1869","<style>.context{color:white; font-size: 35px; line-height:40px}</style>                        <div><p class='context'>您正确回答了79% 的试次。</p><p class='context'>您的平均反应时为667毫秒。</p><p> <div style = 'color: green'><按空格键至下页></div></p>"," ","","","","","","","","","","","","","","","","","","","","","","","","",""
"","","","","","instructions","161","524712","0.0-7.2-1.2-1.2","6633","","","","","","","","","","","","","","[{""page_index"":0,""viewing_time"":1236},{""page_index"":1,""viewing_time"":4364},{""page_index"":2,""viewing_time"":1033}]","","","","","","","","","","","","",""
"","","","","","psychophysics","162","526589","0.0-7.3-0.3-0.72","725","","j","","","","","","","","","","","","","key","j","7.32633858267722","853.3333333333334","476","./1_3_Stimuli/S_ambi40.png","他人","Image","他人","Match","j","true","Practice"
"","","","","","html-keyboard-response","163","526890","0.0-7.3-0.3-1.72","null","<span style='color:GreenYellow; font-size: 70px;'>正确! </span>","null","","","","","","","","","","","","","","","","","","","","","","","","","feedback"
"","","","","","psychophysics","164","528532","0.0-7.3-0.3-0.73","491","","j","","","","","","","","","","","","","key","j","7.2803035714283135","853.3333333333334","476","./1_3_Stimuli/C_ambi40.png","朋友","Image","朋友","Match","j","true","Practice"
"","","","","","html-keyboard-response","165","528833","0.0-7.3-0.3-1.73","null","<span style='color:GreenYellow; font-size: 70px;'>正确! </span>","null","","","","","","","","","","","","","","","","","","","","","","","","","feedback"
"","","","","","psychophysics","166","530441","0.0-7.3-0.3-0.74","457","","j","","","","","","","","","","","","","key","j","7.324269406392758","853.3333333333334","476","./1_3_Stimuli/T_ambi40.png","自我","Image","自我","Match","j","true","Practice"
"","","","","","html-keyboard-response","167","530742","0.0-7.3-0.3-1.74","null","<span style='color:GreenYellow; font-size: 70px;'>正确! </span>","null","","","","","","","","","","","","","","","","","","","","","","","","","feedback"
"","","","","","psychophysics","168","532382","0.0-7.3-0.3-0.75","488","","j","","","","","","","","","","","","","key","j","7.094873913043462","853.3333333333334","476","./1_3_Stimuli/C_ambi40.png","朋友","Word","朋友","Match","j","true","Practice"
"","","","","","html-keyboard-response","169","532684","0.0-7.3-0.3-1.75","null","<span style='color:GreenYellow; font-size: 70px;'>正确! </span>","null","","","","","","","","","","","","","","","","","","","","","","","","","feedback"
"","","","","","psychophysics","170","534348","0.0-7.3-0.3-0.76","513","","f","","","","","","","","","","","","","key","f","7.477769230769492","853.3333333333334","476","./1_3_Stimuli/T_ambi40.png","朋友","Image","自我","Mismatch","f","true","Practice"
"","","","","","html-keyboard-response","171","534650","0.0-7.3-0.3-1.76","null","<span style='color:GreenYellow; font-size: 70px;'>正确! </span>","null","","","","","","","","","","","","","","","","","","","","","","","","","feedback"
"","","","","","psychophysics","172","536489","0.0-7.3-0.3-0.77","688","","j","","","","","","","","","","","","","key","j","7.482122448979573","853.3333333333334","476","./1_3_Stimuli/T_ambi40.png","朋友","Word","自我","Mismatch","f","false","Practice"
"","","","","","html-keyboard-response","173","536790","0.0-7.3-0.3-1.77","null","<span style='color:red; font-size: 70px;'>错误! </span>","null","","","","","","","","","","","","","","","","","","","","","","","","","feedback"
"","","","","","psychophysics","174","538384","0.0-7.3-0.3-0.78","442","","j","","","","","","","","","","","","","key","j","7.610980769230921","853.3333333333334","476","./1_3_Stimuli/T_ambi40.png","自我","Word","自我","Match","j","true","Practice"
"","","","","","html-keyboard-response","175","538685","0.0-7.3-0.3-1.78","null","<span style='color:GreenYellow; font-size: 70px;'>正确! </span>","null","","","","","","","","","","","","","","","","","","","","","","","","","feedback"
"","","","","","psychophysics","176","540358","0.0-7.3-0.3-0.79","520","","f","","","","","","","","","","","","","key","f","7.373867256637452","853.3333333333334","476","./1_3_Stimuli/C_ambi40.png","他人","Image","朋友","Mismatch","f","true","Practice"
"","","","","","html-keyboard-response","177","540659","0.0-7.3-0.3-1.79","null","<span style='color:GreenYellow; font-size: 70px;'>正确! </span>","null","","","","","","","","","","","","","","","","","","","","","","","","","feedback"
"","","","","","psychophysics","178","542373","0.0-7.3-0.3-0.80","562","","f","","","","","","","","","","","","","key","f","7.236510638298189","853.3333333333334","476","./1_3_Stimuli/C_ambi40.png","自我","Image","朋友","Mismatch","f","true","Practice"
"","","","","","html-keyboard-response","179","542675","0.0-7.3-0.3-1.80","null","<span style='color:GreenYellow; font-size: 70px;'>正确! </span>","null","","","","","","","","","","","","","","","","","","","","","","","","","feedback"
"","","","","","psychophysics","180","544550","0.0-7.3-0.3-0.81","724","","f","","","","","","","","","","","","","key","f","7.157226923077206","853.3333333333334","476","./1_3_Stimuli/T_ambi40.png","他人","Word","自我","Mismatch","f","true","Practice"
"","","","","","html-keyboard-response","181","544851","0.0-7.3-0.3-1.81","null","<span style='color:GreenYellow; font-size: 70px;'>正确! </span>","null","","","","","","","","","","","","","","","","","","","","","","","","","feedback"
"","","","","","psychophysics","182","546595","0.0-7.3-0.3-0.82","592","","j","","","","","","","","","","","","","key","j","7.653448888889203","853.3333333333334","476","./1_3_Stimuli/S_ambi40.png","他人","Image","他人","Match","j","true","Practice"
"","","","","","html-keyboard-response","183","546897","0.0-7.3-0.3-1.82","null","<span style='color:GreenYellow; font-size: 70px;'>正确! </span>","null","","","","","","","","","","","","","","","","","","","","","","","","","feedback"
"","","","","","psychophysics","184","548635","0.0-7.3-0.3-0.83","587","","f","","","","","","","","","","","","","key","f","7.388888888888889","853.3333333333334","476","./1_3_Stimuli/S_ambi40.png","他人","Word","他人","Match","j","false","Practice"
"","","","","","html-keyboard-response","185","548936","0.0-7.3-0.3-1.83","null","<span style='color:red; font-size: 70px;'>错误! </span>","null","","","","","","","","","","","","","","","","","","","","","","","","","feedback"
"","","","","","psychophysics","186","550787","0.0-7.3-0.3-0.84","699","","f","","","","","","","","","","","","","key","f","7.449757085020111","853.3333333333334","476","./1_3_Stimuli/T_ambi40.png","他人","Image","自我","Mismatch","f","true","Practice"
"","","","","","html-keyboard-response","187","551088","0.0-7.3-0.3-1.84","null","<span style='color:GreenYellow; font-size: 70px;'>正确! </span>","null","","","","","","","","","","","","","","","","","","","","","","","","","feedback"
"","","","","","psychophysics","188","552721","0.0-7.3-0.3-0.85","481","","j","","","","","","","","","","","","","key","j","7.319764705882113","853.3333333333334","476","./1_3_Stimuli/T_ambi40.png","自我","Word","自我","Match","j","true","Practice"
"","","","","","html-keyboard-response","189","553022","0.0-7.3-0.3-1.85","null","<span style='color:GreenYellow; font-size: 70px;'>正确! </span>","null","","","","","","","","","","","","","","","","","","","","","","","","","feedback"
"","","","","","psychophysics","190","554744","0.0-7.3-0.3-0.86","571","","f","","","","","","","","","","","","","key","f","7.4588296943228265","853.3333333333334","476","./1_3_Stimuli/S_ambi40.png","朋友","Image","他人","Mismatch","f","true","Practice"
"","","","","","html-keyboard-response","191","555045","0.0-7.3-0.3-1.86","null","<span style='color:GreenYellow; font-size: 70px;'>正确! </span>","null","","","","","","","","","","","","","","","","","","","","","","","","","feedback"
"","","","","","psychophysics","192","556803","0.0-7.3-0.3-0.87","606","","f","","","","","","","","","","","","","key","f","7.260547717841907","853.3333333333334","476","./1_3_Stimuli/C_ambi40.png","他人","Word","朋友","Mismatch","f","true","Practice"
"","","","","","html-keyboard-response","193","557104","0.0-7.3-0.3-1.87","null","<span style='color:GreenYellow; font-size: 70px;'>正确! </span>","null","","","","","","","","","","","","","","","","","","","","","","","","","feedback"
"","","","","","psychophysics","194","559104","0.0-7.3-0.3-0.88","848","","f","","","","","","","","","","","","","key","f","7.353265682656775","853.3333333333334","476","./1_3_Stimuli/S_ambi40.png","自我","Word","他人","Mismatch","f","true","Practice"
"","","","","","html-keyboard-response","195","559405","0.0-7.3-0.3-1.88","null","<span style='color:GreenYellow; font-size: 70px;'>正确! </span>","null","","","","","","","","","","","","","","","","","","","","","","","","","feedback"
"","","","","","psychophysics","196","561729","0.0-7.3-0.3-0.89","1173","","f","","","","","","","","","","","","","key","f","7.385996815286559","853.3333333333334","476","./1_3_Stimuli/C_ambi40.png","朋友","Word","朋友","Match","j","false","Practice"
"","","","","","html-keyboard-response","197","562030","0.0-7.3-0.3-1.89","null","<span style='color:red; font-size: 70px;'>错误! </span>","null","","","","","","","","","","","","","","","","","","","","","","","","","feedback"
"","","","","","psychophysics","198","563729","0.0-7.3-0.3-0.90","548","","j","","","","","","","","","","","","","key","j","7.496942477876143","853.3333333333334","476","./1_3_Stimuli/T_ambi40.png","自我","Image","自我","Match","j","true","Practice"
"","","","","","html-keyboard-response","199","564029","0.0-7.3-0.3-1.90","null","<span style='color:GreenYellow; font-size: 70px;'>正确! </span>","null","","","","","","","","","","","","","","","","","","","","","","","","","feedback"
"","","","","","psychophysics","200","565930","0.0-7.3-0.3-0.91","749","","f","","","","","","","","","","","","","key","f","7.099662921348262","853.3333333333334","476","./1_3_Stimuli/S_ambi40.png","朋友","Word","他人","Mismatch","f","true","Practice"
"","","","","","html-keyboard-response","201","566231","0.0-7.3-0.3-1.91","null","<span style='color:GreenYellow; font-size: 70px;'>正确! </span>","null","","","","","","","","","","","","","","","","","","","","","","","","","feedback"
"","","","","","psychophysics","202","568003","0.0-7.3-0.3-0.92","620","","j","","","","","","","","","","","","","key","j","7.318186721992022","853.3333333333334","476","./1_3_Stimuli/C_ambi40.png","自我","Word","朋友","Mismatch","f","false","Practice"
"","","","","","html-keyboard-response","203","568305","0.0-7.3-0.3-1.92","null","<span style='color:red; font-size: 70px;'>错误! </span>","null","","","","","","","","","","","","","","","","","","","","","","","","","feedback"
"","","","","","psychophysics","204","570234","0.0-7.3-0.3-0.93","779","","f","","","","","","","","","","","","","key","f","7.513042968749687","853.3333333333334","476","./1_3_Stimuli/C_ambi40.png","朋友","Image","朋友","Match","j","false","Practice"
"","","","","","html-keyboard-response","205","570537","0.0-7.3-0.3-1.93","null","<span style='color:red; font-size: 70px;'>错误! </span>","null","","","","","","","","","","","","","","","","","","","","","","","","","feedback"
"","","","","","psychophysics","206","572347","0.0-7.3-0.3-0.94","658","","f","","","","","","","","","","","","","key","f","7.165079681275123","853.3333333333334","476","./1_3_Stimuli/S_ambi40.png","自我","Image","他人","Mismatch","f","true","Practice"
"","","","","","html-keyboard-response","207","572649","0.0-7.3-0.3-1.94","null","<span style='color:GreenYellow; font-size: 70px;'>正确! </span>","null","","","","","","","","","","","","","","","","","","","","","","","","","feedback"
"","","","","","psychophysics","208","574581","0.0-7.3-0.3-0.95","781","","j","","","","","","","","","","","","","key","j","7.176873134328365","853.3333333333334","476","./1_3_Stimuli/S_ambi40.png","他人","Word","他人","Match","j","true","Practice"
"","","","","","html-keyboard-response","209","574883","0.0-7.3-0.3-1.95","null","<span style='color:GreenYellow; font-size: 70px;'>正确! </span>","null","","","","","","","","","","","","","","","","","","","","","","","","","feedback"
"","","","","","html-keyboard-response","210","576825","0.0-7.3-1.3-0.3","1941","<style>.context{color:white; font-size: 35px; line-height:40px}</style>                        <div><p class='context'>您正确回答了79% 的试次。</p><p class='context'>您的平均反应时为603毫秒。</p><p> <div style = 'color: green'><按空格键至下页></div></p>"," ","","","","","","","","","","","","","","","","","","","","","","","","",""
"","","","","","instructions","211","579410","0.0-7.3-1.3-1.3","2584","","","","","","","","","","","","","","[{""page_index"":0,""viewing_time"":812},{""page_index"":1,""viewing_time"":956},{""page_index"":2,""viewing_time"":816}]","","","","","","","","","","","","",""
"","","","","","psychophysics","212","581051","0.0-7.4-0.4-0.96","489","","j","","","","","","","","","","","","","key","j","7.385336363636253","853.3333333333334","476","./1_3_Stimuli/T_ambi40.png","自我","Image","自我","Match","j","true","Practice"
"","","","","","html-keyboard-response","213","581352","0.0-7.4-0.4-1.96","null","<span style='color:GreenYellow; font-size: 70px;'>正确! </span>","null","","","","","","","","","","","","","","","","","","","","","","","","","feedback"
"","","","","","psychophysics","214","583160","0.0-7.4-0.4-0.97","657","","f","","","","","","","","","","","","","key","f","7.164792828685307","853.3333333333334","476","./1_3_Stimuli/C_ambi40.png","他人","Image","朋友","Mismatch","f","true","Practice"
"","","","","","html-keyboard-response","215","583461","0.0-7.4-0.4-1.97","null","<span style='color:GreenYellow; font-size: 70px;'>正确! </span>","null","","","","","","","","","","","","","","","","","","","","","","","","","feedback"
"","","","","","psychophysics","216","585327","0.0-7.4-0.4-0.98","715","","j","","","","","","","","","","","","","key","j","7.386099601593481","853.3333333333334","476","./1_3_Stimuli/S_ambi40.png","他人","Word","他人","Match","j","true","Practice"
"","","","","","html-keyboard-response","217","585628","0.0-7.4-0.4-1.98","null","<span style='color:GreenYellow; font-size: 70px;'>正确! </span>","null","","","","","","","","","","","","","","","","","","","","","","","","","feedback"
"","","","","","psychophysics","218","587628","0.0-7.4-0.4-0.99","848","","j","","","","","","","","","","","","","key","j","7.220387681159174","853.3333333333334","476","./1_3_Stimuli/C_ambi40.png","朋友","Word","朋友","Match","j","true","Practice"
"","","","","","html-keyboard-response","219","587928","0.0-7.4-0.4-1.99","null","<span style='color:GreenYellow; font-size: 70px;'>正确! </span>","null","","","","","","","","","","","","","","","","","","","","","","","","","feedback"
"","","","","","psychophysics","220","589582","0.0-7.4-0.4-0.100","502","","j","","","","","","","","","","","","","key","j","7.24948017621138","853.3333333333334","476","./1_3_Stimuli/T_ambi40.png","自我","Word","自我","Match","j","true","Practice"
"","","","","","html-keyboard-response","221","589883","0.0-7.4-0.4-1.100","null","<span style='color:GreenYellow; font-size: 70px;'>正确! </span>","null","","","","","","","","","","","","","","","","","","","","","","","","","feedback"
"","","","","","psychophysics","222","591889","0.0-7.4-0.4-0.101","855","","f","","","","","","","","","","","","","key","f","7.194342960288751","853.3333333333334","476","./1_3_Stimuli/S_ambi40.png","朋友","Word","他人","Mismatch","f","true","Practice"
"","","","","","html-keyboard-response","223","592191","0.0-7.4-0.4-1.101","null","<span style='color:GreenYellow; font-size: 70px;'>正确! </span>","null","","","","","","","","","","","","","","","","","","","","","","","","","feedback"
"","","","","","psychophysics","224","593920","0.0-7.4-0.4-0.102","577","","j","","","","","","","","","","","","","key","j","7.265767932489302","853.3333333333334","476","./1_3_Stimuli/T_ambi40.png","朋友","Image","自我","Mismatch","f","false","Practice"
"","","","","","html-keyboard-response","225","594221","0.0-7.4-0.4-1.102","null","<span style='color:red; font-size: 70px;'>错误! </span>","null","","","","","","","","","","","","","","","","","","","","","","","","","feedback"
"","","","","","psychophysics","226","595894","0.0-7.4-0.4-0.103","523","","j","","","","","","","","","","","","","key","j","7.715129629629599","853.3333333333334","476","./1_3_Stimuli/S_ambi40.png","他人","Image","他人","Match","j","true","Practice"
"","","","","","html-keyboard-response","227","596196","0.0-7.4-0.4-1.103","null","<span style='color:GreenYellow; font-size: 70px;'>正确! </span>","null","","","","","","","","","","","","","","","","","","","","","","","","","feedback"
"","","","","","psychophysics","228","597981","0.0-7.4-0.4-0.104","634","","j","","","","","","","","","","","","","key","j","7.377516666666876","853.3333333333334","476","./1_3_Stimuli/C_ambi40.png","朋友","Image","朋友","Match","j","true","Practice"
"","","","","","html-keyboard-response","229","598283","0.0-7.4-0.4-1.104","null","<span style='color:GreenYellow; font-size: 70px;'>正确! </span>","null","","","","","","","","","","","","","","","","","","","","","","","","","feedback"
"","","","","","psychophysics","230","599894","0.0-7.4-0.4-0.105","460","","j","","","","","","","","","","","","","key","j","7.1939594594594976","853.3333333333334","476","./1_3_Stimuli/C_ambi40.png","朋友","Image","朋友","Match","j","true","Practice"
"","","","","","html-keyboard-response","231","600196","0.0-7.4-0.4-1.105","null","<span style='color:GreenYellow; font-size: 70px;'>正确! </span>","null","","","","","","","","","","","","","","","","","","","","","","","","","feedback"
"","","","","","psychophysics","232","601790","0.0-7.4-0.4-0.106","442","","j","","","","","","","","","","","","","key","j","7.726431372549212","853.3333333333334","476","./1_3_Stimuli/T_ambi40.png","自我","Word","自我","Match","j","true","Practice"
"","","","","","html-keyboard-response","233","602093","0.0-7.4-0.4-1.106","null","<span style='color:GreenYellow; font-size: 70px;'>正确! </span>","null","","","","","","","","","","","","","","","","","","","","","","","","","feedback"
"","","","","","psychophysics","234","603818","0.0-7.4-0.4-0.107","575","","j","","","","","","","","","","","","","key","j","7.298255319148797","853.3333333333334","476","./1_3_Stimuli/S_ambi40.png","他人","Image","他人","Match","j","true","Practice"
"","","","","","html-keyboard-response","235","604120","0.0-7.4-0.4-1.107","null","<span style='color:GreenYellow; font-size: 70px;'>正确! </span>","null","","","","","","","","","","","","","","","","","","","","","","","","","feedback"
"","","","","","psychophysics","236","605787","0.0-7.4-0.4-0.108","514","","f","","","","","","","","","","","","","key","f","7.543059090909082","853.3333333333334","476","./1_3_Stimuli/C_ambi40.png","他人","Word","朋友","Mismatch","f","true","Practice"
"","","","","","html-keyboard-response","237","606089","0.0-7.4-0.4-1.108","null","<span style='color:GreenYellow; font-size: 70px;'>正确! </span>","null","","","","","","","","","","","","","","","","","","","","","","","","","feedback"
"","","","","","psychophysics","238","607873","0.0-7.4-0.4-0.109","633","","f","","","","","","","","","","","","","key","f","7.223261224489887","853.3333333333334","476","./1_3_Stimuli/C_ambi40.png","自我","Word","朋友","Mismatch","f","true","Practice"
"","","","","","html-keyboard-response","239","608174","0.0-7.4-0.4-1.109","null","<span style='color:GreenYellow; font-size: 70px;'>正确! </span>","null","","","","","","","","","","","","","","","","","","","","","","","","","feedback"
"","","","","","psychophysics","240","609900","0.0-7.4-0.4-0.110","574","","f","","","","","","","","","","","","","key","f","7.267453389830781","853.3333333333334","476","./1_3_Stimuli/T_ambi40.png","他人","Image","自我","Mismatch","f","true","Practice"
"","","","","","html-keyboard-response","241","610202","0.0-7.4-0.4-1.110","null","<span style='color:GreenYellow; font-size: 70px;'>正确! </span>","null","","","","","","","","","","","","","","","","","","","","","","","","","feedback"
"","","","","","psychophysics","242","611935","0.0-7.4-0.4-0.111","582","","f","","","","","","","","","","","","","key","f","7.2659451476792425","853.3333333333334","476","./1_3_Stimuli/S_ambi40.png","自我","Image","他人","Mismatch","f","true","Practice"
"","","","","","html-keyboard-response","243","612237","0.0-7.4-0.4-1.111","null","<span style='color:GreenYellow; font-size: 70px;'>正确! </span>","null","","","","","","","","","","","","","","","","","","","","","","","","","feedback"
"","","","","","psychophysics","244","613997","0.0-7.4-0.4-0.112","609","","f","","","","","","","","","","","","","key","f","7.414245762711813","853.3333333333334","476","./1_3_Stimuli/S_ambi40.png","朋友","Image","他人","Mismatch","f","true","Practice"
"","","","","","html-keyboard-response","245","614298","0.0-7.4-0.4-1.112","null","<span style='color:GreenYellow; font-size: 70px;'>正确! </span>","null","","","","","","","","","","","","","","","","","","","","","","","","","feedback"
"","","","","","psychophysics","246","616153","0.0-7.4-0.4-0.113","703","","j","","","","","","","","","","","","","key","j","7.243223529411754","853.3333333333334","476","./1_3_Stimuli/C_ambi40.png","朋友","Word","朋友","Match","j","true","Practice"
"","","","","","html-keyboard-response","247","616454","0.0-7.4-0.4-1.113","null","<span style='color:GreenYellow; font-size: 70px;'>正确! </span>","null","","","","","","","","","","","","","","","","","","","","","","","","","feedback"
"","","","","","psychophysics","248","618284","0.0-7.4-0.4-0.114","678","","f","","","","","","","","","","","","","key","f","7.190083003952628","853.3333333333334","476","./1_3_Stimuli/T_ambi40.png","朋友","Word","自我","Mismatch","f","true","Practice"
"","","","","","html-keyboard-response","249","618586","0.0-7.4-0.4-1.114","null","<span style='color:GreenYellow; font-size: 70px;'>正确! </span>","null","","","","","","","","","","","","","","","","","","","","","","","","","feedback"
"","","","","","psychophysics","250","620844","0.0-7.4-0.4-0.115","1107","","f","","","","","","","","","","","","","key","f","7.187338658146926","853.3333333333334","476","./1_3_Stimuli/T_ambi40.png","他人","Word","自我","Mismatch","f","true","Practice"
"","","","","","html-keyboard-response","251","621146","0.0-7.4-0.4-1.115","null","<span style='color:GreenYellow; font-size: 70px;'>正确! </span>","null","","","","","","","","","","","","","","","","","","","","","","","","","feedback"
"","","","","","psychophysics","252","622772","0.0-7.4-0.4-0.116","475","","j","","","","","","","","","","","","","key","j","7.560186915887872","853.3333333333334","476","./1_3_Stimuli/T_ambi40.png","自我","Image","自我","Match","j","true","Practice"
"","","","","","html-keyboard-response","253","623073","0.0-7.4-0.4-1.116","null","<span style='color:GreenYellow; font-size: 70px;'>正确! </span>","null","","","","","","","","","","","","","","","","","","","","","","","","","feedback"
"","","","","","psychophysics","254","624948","0.0-7.4-0.4-0.117","724","","f","","","","","","","","","","","","","key","f","7.127475095785248","853.3333333333334","476","./1_3_Stimuli/S_ambi40.png","他人","Word","他人","Match","j","false","Practice"
"","","","","","html-keyboard-response","255","625250","0.0-7.4-0.4-1.117","null","<span style='color:red; font-size: 70px;'>错误! </span>","null","","","","","","","","","","","","","","","","","","","","","","","","","feedback"
"","","","","","psychophysics","256","627369","0.0-7.4-0.4-0.118","968","","f","","","","","","","","","","","","","key","f","7.329208333333049","853.3333333333334","476","./1_3_Stimuli/C_ambi40.png","自我","Image","朋友","Mismatch","f","true","Practice"
"","","","","","html-keyboard-response","257","627671","0.0-7.4-0.4-1.118","null","<span style='color:GreenYellow; font-size: 70px;'>正确! </span>","null","","","","","","","","","","","","","","","","","","","","","","","","","feedback"
"","","","","","psychophysics","258","629516","0.0-7.4-0.4-0.119","694","","f","","","","","","","","","","","","","key","f","7.391282258064753","853.3333333333334","476","./1_3_Stimuli/S_ambi40.png","自我","Word","他人","Mismatch","f","true","Practice"
"","","","","","html-keyboard-response","259","629817","0.0-7.4-0.4-1.119","null","<span style='color:GreenYellow; font-size: 70px;'>正确! </span>","null","","","","","","","","","","","","","","","","","","","","","","","","","feedback"
"","","","","","html-keyboard-response","260","670532","0.0-8.0","40714","<style>.context{color:white; font-size: 35px; line-height:40px}</style>                          <div><p class='context'>您正确回答了92% 的试次。</p><p class='context'>您的平均反应时为647毫秒。</p><p class='context'>恭喜您完成练习。现在请休息3~5分钟。</p><p class='context'>之后，按任意键进入正式实验。需要注意的是，正式实验将不再提供反应是否正确的反馈。</p><p class='footer' style='font-size: 35px; line-height:40px;'>请在进入正式实验实验之前将您的<span style='color: lightgreen;'>食指</span>放在电脑键盘的相应键位上进行按键。</p>"," ","","","","","","","","","","","","","","","","","","","","","","","","",""
"","","","","","psychophysics","261","673236","0.0-9.0-0.0-0.0","null","","null","","","","","","","","","","","","","key","null","7.4625","853.3333333333334","476","./1_3_Stimuli/S_ambi40.png","他人","Word","他人","Match","j","false","Formal"
"","","","","","psychophysics","262","675939","0.0-9.0-0.0-0.1","null","","null","","","","","","","","","","","","","key","null","7.184141333333527","853.3333333333334","476","./1_3_Stimuli/S_ambi40.png","自我","Image","他人","Mismatch","f","false","Formal"
"","","","","","psychophysics","263","677577","0.0-9.0-0.0-0.2","487","","f","","","","","","","","","","","","","key","f","7.55429166666646","853.3333333333334","476","./1_3_Stimuli/C_ambi40.png","朋友","Image","朋友","Match","j","false","Formal"
"","","","","","psychophysics","264","679166","0.0-9.0-0.0-0.3","437","","j","","","","","","","","","","","","","key","j","7.261862385321148","853.3333333333334","476","./1_3_Stimuli/T_ambi40.png","自我","Word","自我","Match","j","true","Formal"
"","","","","","psychophysics","265","680914","0.0-9.0-0.0-0.4","598","","f","","","","","","","","","","","","","key","f","7.2936386554624235","853.3333333333334","476","./1_3_Stimuli/C_ambi40.png","他人","Image","朋友","Mismatch","f","true","Formal"
"","","","","","psychophysics","266","682575","0.0-9.0-0.0-0.5","508","","j","","","","","","","","","","","","","key","j","7.3467589285714245","853.3333333333334","476","./1_3_Stimuli/T_ambi40.png","自我","Image","自我","Match","j","true","Formal"
"","","","","","psychophysics","267","684300","0.0-9.0-0.0-0.6","574","","j","","","","","","","","","","","","","key","j","7.116315352697122","853.3333333333334","476","./1_3_Stimuli/C_ambi40.png","朋友","Word","朋友","Match","j","true","Formal"
"","","","","","psychophysics","268","685995","0.0-9.0-0.0-0.7","543","","f","","","","","","","","","","","","","key","f","7.566255605380748","853.3333333333334","476","./1_3_Stimuli/T_ambi40.png","朋友","Image","自我","Mismatch","f","true","Formal"
"","","","","","psychophysics","269","687717","0.0-9.0-0.0-0.8","571","","f","","","","","","","","","","","","","key","f","8.172177033492757","853.3333333333334","476","./1_3_Stimuli/T_ambi40.png","朋友","Word","自我","Mismatch","f","true","Formal"
"","","","","","psychophysics","270","689469","0.0-9.0-0.0-0.9","599","","f","","","","","","","","","","","","","key","f","7.261883333333147","853.3333333333334","476","./1_3_Stimuli/T_ambi40.png","他人","Image","自我","Mismatch","f","true","Formal"
"","","","","","psychophysics","271","691359","0.0-9.0-0.0-0.10","739","","f","","","","","","","","","","","","","key","f","7.156379310344613","853.3333333333334","476","./1_3_Stimuli/C_ambi40.png","他人","Word","朋友","Mismatch","f","true","Formal"
"","","","","","psychophysics","272","693169","0.0-9.0-0.0-0.11","658","","j","","","","","","","","","","","","","key","j","7.340461224490036","853.3333333333334","476","./1_3_Stimuli/S_ambi40.png","他人","Image","他人","Match","j","true","Formal"
"","","","","","psychophysics","273","694814","0.0-9.0-0.0-0.12","493","","j","","","","","","","","","","","","","key","j","7.418922374428986","853.3333333333334","476","./1_3_Stimuli/C_ambi40.png","朋友","Image","朋友","Match","j","true","Formal"
"","","","","","psychophysics","274","696454","0.0-9.0-0.0-0.13","490","","j","","","","","","","","","","","","","key","j","7.220053097344955","853.3333333333334","476","./1_3_Stimuli/T_ambi40.png","自我","Image","自我","Match","j","true","Formal"
"","","","","","psychophysics","275","698210","0.0-9.0-0.0-0.14","604","","f","","","","","","","","","","","","","key","f","7.142713114754278","853.3333333333334","476","./1_3_Stimuli/C_ambi40.png","朋友","Word","朋友","Match","j","false","Formal"
"","","","","","psychophysics","276","699976","0.0-9.0-0.0-0.15","614","","f","","","","","","","","","","","","","key","f","7.3500418410043205","853.3333333333334","476","./1_3_Stimuli/S_ambi40.png","自我","Word","他人","Mismatch","f","true","Formal"
"","","","","","psychophysics","277","701725","0.0-9.0-0.0-0.16","597","","f","","","","","","","","","","","","","key","f","7.512711206896648","853.3333333333334","476","./1_3_Stimuli/C_ambi40.png","自我","Image","朋友","Mismatch","f","true","Formal"
"","","","","","psychophysics","278","703530","0.0-9.0-0.0-0.17","654","","j","","","","","","","","","","","","","key","j","7.688334763948426","853.3333333333334","476","./1_3_Stimuli/S_ambi40.png","朋友","Word","他人","Mismatch","f","false","Formal"
"","","","","","psychophysics","279","705301","0.0-9.0-0.0-0.18","620","","f","","","","","","","","","","","","","key","f","7.170416326531","853.3333333333334","476","./1_3_Stimuli/C_ambi40.png","自我","Word","朋友","Mismatch","f","true","Formal"
"","","","","","psychophysics","280","707191","0.0-9.0-0.0-0.19","739","","j","","","","","","","","","","","","","key","j","7.526779999999795","853.3333333333334","476","./1_3_Stimuli/S_ambi40.png","他人","Word","他人","Match","j","true","Formal"
"","","","","","psychophysics","281","708863","0.0-9.0-0.0-0.20","520","","j","","","","","","","","","","","","","key","j","7.540506787330009","853.3333333333334","476","./1_3_Stimuli/T_ambi40.png","自我","Word","自我","Match","j","true","Formal"
"","","","","","psychophysics","282","710697","0.0-9.0-0.0-0.21","683","","f","","","","","","","","","","","","","key","f","7.423308943089749","853.3333333333334","476","./1_3_Stimuli/T_ambi40.png","他人","Word","自我","Mismatch","f","true","Formal"
"","","","","","psychophysics","283","712953","0.0-9.0-0.0-0.22","1104","","f","","","","","","","","","","","","","key","f","7.628714285714102","853.3333333333334","476","./1_3_Stimuli/S_ambi40.png","朋友","Image","他人","Mismatch","f","true","Formal"
"","","","","","psychophysics","284","714720","0.0-9.0-0.0-0.23","616","","j","","","","","","","","","","","","","key","j","7.1702367346938125","853.3333333333334","476","./1_3_Stimuli/S_ambi40.png","他人","Image","他人","Match","j","true","Formal"
"","","","","","psychophysics","285","716432","0.0-9.0-0.0-0.24","560","","f","","","","","","","","","","","","","key","f","7.237733050847378","853.3333333333334","476","./1_3_Stimuli/S_ambi40.png","朋友","Word","他人","Mismatch","f","true","Formal"
"","","","","","psychophysics","286","718051","0.0-9.0-0.0-0.25","468","","j","","","","","","","","","","","","","key","j","7.493116279069854","853.3333333333334","476","./1_3_Stimuli/T_ambi40.png","自我","Word","自我","Match","j","true","Formal"
"","","","","","psychophysics","287","719838","0.0-9.0-0.0-0.26","635","","j","","","","","","","","","","","","","key","j","7.31534567901217","853.3333333333334","476","./1_3_Stimuli/T_ambi40.png","自我","Image","自我","Match","j","true","Formal"
"","","","","","psychophysics","288","721792","0.0-9.0-0.0-0.27","803","","f","","","","","","","","","","","","","key","f","7.336452830188363","853.3333333333334","476","./1_3_Stimuli/T_ambi40.png","朋友","Word","自我","Mismatch","f","true","Formal"
"","","","","","psychophysics","289","723712","0.0-9.0-0.0-0.28","769","","j","","","","","","","","","","","","","key","j","7.1786691729321594","853.3333333333334","476","./1_3_Stimuli/C_ambi40.png","朋友","Word","朋友","Match","j","true","Formal"
"","","","","","psychophysics","290","725584","0.0-9.0-0.0-0.29","720","","f","","","","","","","","","","","","","key","f","7.29749411764719","853.3333333333334","476","./1_3_Stimuli/C_ambi40.png","自我","Word","朋友","Mismatch","f","true","Formal"
"","","","","","psychophysics","291","727310","0.0-9.0-0.0-0.30","574","","j","","","","","","","","","","","","","key","j","7.360819742489254","853.3333333333334","476","./1_3_Stimuli/T_ambi40.png","自我","Word","自我","Match","j","true","Formal"
"","","","","","psychophysics","292","729577","0.0-9.0-0.0-0.31","1114","","f","","","","","","","","","","","","","key","f","7.232897435897403","853.3333333333334","476","./1_3_Stimuli/C_ambi40.png","他人","Word","朋友","Mismatch","f","true","Formal"
"","","","","","psychophysics","293","731318","0.0-9.0-0.0-0.32","590","","f","","","","","","","","","","","","","key","f","7.202609958506336","853.3333333333334","476","./1_3_Stimuli/S_ambi40.png","自我","Image","他人","Mismatch","f","true","Formal"
"","","","","","psychophysics","294","733319","0.0-9.0-0.0-0.33","849","","f","","","","","","","","","","","","","key","f","7.299630036630033","853.3333333333334","476","./1_3_Stimuli/T_ambi40.png","朋友","Image","自我","Mismatch","f","true","Formal"
"","","","","","psychophysics","295","735333","0.0-9.0-0.0-0.34","862","","j","","","","","","","","","","","","","key","j","7.747876447876718","853.3333333333334","476","./1_3_Stimuli/S_ambi40.png","他人","Image","他人","Match","j","true","Formal"
"","","","","","psychophysics","296","737475","0.0-9.0-0.0-0.35","990","","f","","","","","","","","","","","","","key","f","7.376076124567429","853.3333333333334","476","./1_3_Stimuli/S_ambi40.png","他人","Word","他人","Match","j","false","Formal"
"","","","","","psychophysics","297","739335","0.0-9.0-0.0-0.36","708","","f","","","","","","","","","","","","","key","f","7.479975609756188","853.3333333333334","476","./1_3_Stimuli/T_ambi40.png","他人","Image","自我","Mismatch","f","true","Formal"
"","","","","","psychophysics","298","741165","0.0-9.0-0.0-0.37","679","","j","","","","","","","","","","","","","key","j","7.705417721519023","853.3333333333334","476","./1_3_Stimuli/S_ambi40.png","他人","Image","他人","Match","j","true","Formal"
"","","","","","psychophysics","299","742961","0.0-9.0-0.0-0.38","644","","f","","","","","","","","","","","","","key","f","7.7248398268401814","853.3333333333334","476","./1_3_Stimuli/S_ambi40.png","朋友","Image","他人","Mismatch","f","true","Formal"
"","","","","","psychophysics","300","744784","0.0-9.0-0.0-0.39","672","","j","","","","","","","","","","","","","key","j","7.107007843136842","853.3333333333334","476","./1_3_Stimuli/C_ambi40.png","朋友","Word","朋友","Match","j","true","Formal"
"","","","","","psychophysics","301","746416","0.0-9.0-0.0-0.40","480","","j","","","","","","","","","","","","","key","j","7.1264385964911385","853.3333333333334","476","./1_3_Stimuli/C_ambi40.png","朋友","Image","朋友","Match","j","true","Formal"
"","","","","","psychophysics","302","748027","0.0-9.0-0.0-0.41","459","","f","","","","","","","","","","","","","key","f","7.3574541284405806","853.3333333333334","476","./1_3_Stimuli/T_ambi40.png","他人","Word","自我","Mismatch","f","true","Formal"
"","","","","","psychophysics","303","749814","0.0-9.0-0.0-0.42","635","","f","","","","","","","","","","","","","key","f","7.468457983193348","853.3333333333334","476","./1_3_Stimuli/C_ambi40.png","朋友","Image","朋友","Match","j","false","Formal"
"","","","","","psychophysics","304","751487","0.0-9.0-0.0-0.43","521","","f","","","","","","","","","","","","","key","f","7.685799999999662","853.3333333333334","476","./1_3_Stimuli/C_ambi40.png","他人","Image","朋友","Mismatch","f","true","Formal"
"","","","","","psychophysics","305","753371","0.0-9.0-0.0-0.44","734","","j","","","","","","","","","","","","","key","j","7.266581395349029","853.3333333333334","476","./1_3_Stimuli/S_ambi40.png","他人","Word","他人","Match","j","true","Formal"
"","","","","","psychophysics","306","755072","0.0-9.0-0.0-0.45","550","","j","","","","","","","","","","","","","key","j","7.2713648068669645","853.3333333333334","476","./1_3_Stimuli/T_ambi40.png","自我","Image","自我","Match","j","true","Formal"
"","","","","","psychophysics","307","756754","0.0-9.0-0.0-0.46","530","","j","","","","","","","","","","","","","key","j","7.3074759825328","853.3333333333334","476","./1_3_Stimuli/C_ambi40.png","自我","Image","朋友","Mismatch","f","false","Formal"
"","","","","","psychophysics","308","758833","0.0-9.0-0.0-0.47","928","","f","","","","","","","","","","","","","key","f","7.8078226415097784","853.3333333333334","476","./1_3_Stimuli/S_ambi40.png","自我","Word","他人","Mismatch","f","true","Formal"
"","","","","","psychophysics","309","760675","0.0-9.0-0.0-0.48","689","","j","","","","","","","","","","","","","key","j","7.333919678715125","853.3333333333334","476","./1_3_Stimuli/S_ambi40.png","他人","Image","他人","Match","j","true","Formal"
"","","","","","psychophysics","310","762587","0.0-9.0-0.0-0.49","760","","f","","","","","","","","","","","","","key","f","7.433847058823277","853.3333333333334","476","./1_3_Stimuli/T_ambi40.png","自我","Image","自我","Match","j","false","Formal"
"","","","","","psychophysics","311","764451","0.0-9.0-0.0-0.50","713","","j","","","","","","","","","","","","","key","j","7.629148148147795","853.3333333333334","476","./1_3_Stimuli/C_ambi40.png","朋友","Image","朋友","Match","j","true","Formal"
"","","","","","psychophysics","312","766198","0.0-9.0-0.0-0.51","596","","f","","","","","","","","","","","","","key","f","7.6472731277537385","853.3333333333334","476","./1_3_Stimuli/S_ambi40.png","自我","Word","他人","Mismatch","f","true","Formal"
"","","","","","psychophysics","313","768214","0.0-9.0-0.0-0.52","865","","f","","","","","","","","","","","","","key","f","7.192390681003674","853.3333333333334","476","./1_3_Stimuli/T_ambi40.png","他人","Image","自我","Mismatch","f","true","Formal"
"","","","","","psychophysics","314","769962","0.0-9.0-0.0-0.53","596","","f","","","","","","","","","","","","","key","f","7.585920704845626","853.3333333333334","476","./1_3_Stimuli/T_ambi40.png","他人","Word","自我","Mismatch","f","true","Formal"
"","","","","","psychophysics","315","771741","0.0-9.0-0.0-0.54","628","","f","","","","","","","","","","","","","key","f","7.731973799126524","853.3333333333334","476","./1_3_Stimuli/C_ambi40.png","自我","Word","朋友","Mismatch","f","true","Formal"
"","","","","","psychophysics","316","773438","0.0-9.0-0.0-0.55","546","","j","","","","","","","","","","","","","key","j","7.334311688311289","853.3333333333334","476","./1_3_Stimuli/T_ambi40.png","自我","Word","自我","Match","j","true","Formal"
"","","","","","psychophysics","317","775230","0.0-9.0-0.0-0.56","641","","f","","","","","","","","","","","","","key","f","7.196765182186333","853.3333333333334","476","./1_3_Stimuli/C_ambi40.png","他人","Word","朋友","Mismatch","f","true","Formal"
"","","","","","psychophysics","318","777003","0.0-9.0-0.0-0.57","621","","j","","","","","","","","","","","","","key","j","7.566713675213818","853.3333333333334","476","./1_3_Stimuli/T_ambi40.png","自我","Image","自我","Match","j","true","Formal"
"","","","","","psychophysics","319","779126","0.0-9.0-0.0-0.58","971","","f","","","","","","","","","","","","","key","f","7.645285198555769","853.3333333333334","476","./1_3_Stimuli/S_ambi40.png","朋友","Word","他人","Mismatch","f","true","Formal"
"","","","","","psychophysics","320","780827","0.0-9.0-0.0-0.59","550","","j","","","","","","","","","","","","","key","j","7.496544247787792","853.3333333333334","476","./1_3_Stimuli/S_ambi40.png","他人","Word","他人","Match","j","true","Formal"
"","","","","","psychophysics","321","782444","0.0-9.0-0.0-0.60","467","","j","","","","","","","","","","","","","key","j","7.492599999999931","853.3333333333334","476","./1_3_Stimuli/S_ambi40.png","他人","Image","他人","Match","j","true","Formal"
"","","","","","psychophysics","322","784218","0.0-9.0-0.0-0.61","623","","f","","","","","","","","","","","","","key","f","7.169483739837751","853.3333333333334","476","./1_3_Stimuli/S_ambi40.png","朋友","Image","他人","Mismatch","f","true","Formal"
"","","","","","psychophysics","323","786102","0.0-9.0-0.0-0.62","732","","f","","","","","","","","","","","","","key","f","7.6865555555559695","853.3333333333334","476","./1_3_Stimuli/C_ambi40.png","自我","Image","朋友","Mismatch","f","true","Formal"
"","","","","","psychophysics","324","787870","0.0-9.0-0.0-0.63","616","","j","","","","","","","","","","","","","key","j","6.943695652173932","853.3333333333334","476","./1_3_Stimuli/C_ambi40.png","朋友","Word","朋友","Match","j","true","Formal"
"","","","","","psychophysics","325","789744","0.0-9.0-0.0-0.64","722","","j","","","","","","","","","","","","","key","j","7.183861538461553","853.3333333333334","476","./1_3_Stimuli/T_ambi40.png","自我","Word","自我","Match","j","true","Formal"
"","","","","","psychophysics","326","791489","0.0-9.0-0.0-0.65","594","","f","","","","","","","","","","","","","key","f","7.514809523809407","853.3333333333334","476","./1_3_Stimuli/T_ambi40.png","朋友","Word","自我","Mismatch","f","true","Formal"
"","","","","","psychophysics","327","793180","0.0-9.0-0.0-0.66","539","","j","","","","","","","","","","","","","key","j","7.368240174672192","853.3333333333334","476","./1_3_Stimuli/S_ambi40.png","他人","Word","他人","Match","j","true","Formal"
"","","","","","psychophysics","328","794870","0.0-9.0-0.0-0.67","539","","f","","","","","","","","","","","","","key","f","7.468342222222127","853.3333333333334","476","./1_3_Stimuli/S_ambi40.png","自我","Image","他人","Mismatch","f","true","Formal"
"","","","","","psychophysics","329","797068","0.0-9.0-0.0-0.68","1047","","j","","","","","","","","","","","","","key","j","7.414447457627078","853.3333333333334","476","./1_3_Stimuli/T_ambi40.png","朋友","Image","自我","Mismatch","f","false","Formal"
"","","","","","psychophysics","330","798993","0.0-9.0-0.0-0.69","774","","f","","","","","","","","","","","","","key","f","7.399397683397751","853.3333333333334","476","./1_3_Stimuli/C_ambi40.png","他人","Image","朋友","Mismatch","f","true","Formal"
"","","","","","psychophysics","331","800914","0.0-9.0-0.0-0.70","769","","f","","","","","","","","","","","","","key","f","7.342670498083977","853.3333333333334","476","./1_3_Stimuli/C_ambi40.png","朋友","Image","朋友","Match","j","false","Formal"
"","","","","","psychophysics","332","802748","0.0-9.0-0.0-0.71","683","","f","","","","","","","","","","","","","key","f","7.334024096385624","853.3333333333334","476","./1_3_Stimuli/C_ambi40.png","朋友","Word","朋友","Match","j","false","Formal"
"","","","","","psychophysics","333","804587","0.0-9.0-0.0-0.72","687","","f","","","","","","","","","","","","","key","f","7.023329501915402","853.3333333333334","476","./1_3_Stimuli/T_ambi40.png","朋友","Word","自我","Mismatch","f","true","Formal"
"","","","","","psychophysics","334","806295","0.0-9.0-0.0-0.73","557","","j","","","","","","","","","","","","","key","j","7.3011072961375705","853.3333333333334","476","./1_3_Stimuli/S_ambi40.png","他人","Word","他人","Match","j","true","Formal"
"","","","","","psychophysics","335","808282","0.0-9.0-0.0-0.74","836","","f","","","","","","","","","","","","","key","f","7.41345112781956","853.3333333333334","476","./1_3_Stimuli/C_ambi40.png","自我","Word","朋友","Mismatch","f","true","Formal"
"","","","","","psychophysics","336","810504","0.0-9.0-0.0-0.75","1071","","j","","","","","","","","","","","","","key","j","7.383206666666471","853.3333333333334","476","./1_3_Stimuli/C_ambi40.png","朋友","Word","朋友","Match","j","true","Formal"
"","","","","","psychophysics","337","812704","0.0-9.0-0.0-0.76","1048","","f","","","","","","","","","","","","","key","f","7.594260416666657","853.3333333333334","476","./1_3_Stimuli/S_ambi40.png","朋友","Word","他人","Mismatch","f","true","Formal"
"","","","","","psychophysics","338","814614","0.0-9.0-0.0-0.77","759","","f","","","","","","","","","","","","","key","f","7.289471264367912","853.3333333333334","476","./1_3_Stimuli/T_ambi40.png","朋友","Image","自我","Mismatch","f","true","Formal"
"","","","","","psychophysics","339","816441","0.0-9.0-0.0-0.78","676","","f","","","","","","","","","","","","","key","f","6.943507633587871","853.3333333333334","476","./1_3_Stimuli/T_ambi40.png","他人","Word","自我","Mismatch","f","true","Formal"
"","","","","","psychophysics","340","818207","0.0-9.0-0.0-0.79","615","","f","","","","","","","","","","","","","key","f","7.259272727272993","853.3333333333334","476","./1_3_Stimuli/C_ambi40.png","朋友","Image","朋友","Match","j","false","Formal"
"","","","","","psychophysics","341","819997","0.0-9.0-0.0-0.80","638","","j","","","","","","","","","","","","","key","j","7.22579674796737","853.3333333333334","476","./1_3_Stimuli/S_ambi40.png","他人","Word","他人","Match","j","true","Formal"
"","","","","","psychophysics","342","821780","0.0-9.0-0.0-0.81","632","","j","","","","","","","","","","","","","key","j","8.306275700934876","853.3333333333334","476","./1_3_Stimuli/T_ambi40.png","自我","Image","自我","Match","j","true","Formal"
"","","","","","psychophysics","343","823552","0.0-9.0-0.0-0.82","620","","j","","","","","","","","","","","","","key","j","7.259090909090717","853.3333333333334","476","./1_3_Stimuli/T_ambi40.png","自我","Image","自我","Match","j","true","Formal"
"","","","","","psychophysics","344","825294","0.0-9.0-0.0-0.83","590","","f","","","","","","","","","","","","","key","f","7.388739316239177","853.3333333333334","476","./1_3_Stimuli/C_ambi40.png","他人","Word","朋友","Mismatch","f","true","Formal"
"","","","","","psychophysics","345","827161","0.0-9.0-0.0-0.84","716","","j","","","","","","","","","","","","","key","j","7.443776000000071","853.3333333333334","476","./1_3_Stimuli/C_ambi40.png","自我","Image","朋友","Mismatch","f","false","Formal"
"","","","","","psychophysics","346","829020","0.0-9.0-0.0-0.85","708","","f","","","","","","","","","","","","","key","f","7.387912000000012","853.3333333333334","476","./1_3_Stimuli/S_ambi40.png","朋友","Image","他人","Mismatch","f","true","Formal"
"","","","","","psychophysics","347","830966","0.0-9.0-0.0-0.86","793","","f","","","","","","","","","","","","","key","f","7.878918367347262","853.3333333333334","476","./1_3_Stimuli/S_ambi40.png","自我","Word","他人","Mismatch","f","true","Formal"
"","","","","","psychophysics","348","832958","0.0-9.0-0.0-0.87","841","","j","","","","","","","","","","","","","key","j","7.550760456274118","853.3333333333334","476","./1_3_Stimuli/S_ambi40.png","他人","Image","他人","Match","j","true","Formal"
"","","","","","psychophysics","349","834613","0.0-9.0-0.0-0.88","503","","j","","","","","","","","","","","","","key","j","7.725981220657098","853.3333333333334","476","./1_3_Stimuli/C_ambi40.png","朋友","Image","朋友","Match","j","true","Formal"
"","","","","","psychophysics","350","836358","0.0-9.0-0.0-0.89","593","","f","","","","","","","","","","","","","key","f","7.293806722688982","853.3333333333334","476","./1_3_Stimuli/T_ambi40.png","他人","Image","自我","Mismatch","f","true","Formal"
"","","","","","psychophysics","351","838154","0.0-9.0-0.0-0.90","645","","f","","","","","","","","","","","","","key","f","7.464250000000175","853.3333333333334","476","./1_3_Stimuli/S_ambi40.png","自我","Image","他人","Mismatch","f","true","Formal"
"","","","","","psychophysics","352","839780","0.0-9.0-0.0-0.91","473","","j","","","","","","","","","","","","","key","j","7.353818181818562","853.3333333333334","476","./1_3_Stimuli/S_ambi40.png","他人","Image","他人","Match","j","true","Formal"
"","","","","","psychophysics","353","841482","0.0-9.0-0.0-0.92","549","","f","","","","","","","","","","","","","key","f","7.367986899563701","853.3333333333334","476","./1_3_Stimuli/C_ambi40.png","他人","Image","朋友","Mismatch","f","true","Formal"
"","","","","","psychophysics","354","843410","0.0-9.0-0.0-0.93","777","","j","","","","","","","","","","","","","key","j","7.313216730038204","853.3333333333334","476","./1_3_Stimuli/C_ambi40.png","朋友","Word","朋友","Match","j","true","Formal"
"","","","","","psychophysics","355","845351","0.0-9.0-0.0-0.94","790","","j","","","","","","","","","","","","","key","j","7.3396768060839515","853.3333333333334","476","./1_3_Stimuli/T_ambi40.png","自我","Word","自我","Match","j","true","Formal"
"","","","","","psychophysics","356","846910","0.0-9.0-0.0-0.95","408","","j","","","","","","","","","","","","","key","j","7.6651138613861525","853.3333333333334","476","./1_3_Stimuli/T_ambi40.png","自我","Word","自我","Match","j","true","Formal"
"","","","","","psychophysics","357","848695","0.0-9.0-0.0-0.96","632","","f","","","","","","","","","","","","","key","f","7.285061475410046","853.3333333333334","476","./1_3_Stimuli/C_ambi40.png","他人","Word","朋友","Mismatch","f","true","Formal"
"","","","","","psychophysics","358","850450","0.0-9.0-0.0-0.97","603","","j","","","","","","","","","","","","","key","j","7.745853333333507","853.3333333333334","476","./1_3_Stimuli/S_ambi40.png","他人","Word","他人","Match","j","true","Formal"
"","","","","","psychophysics","359","852062","0.0-9.0-0.0-0.98","461","","j","","","","","","","","","","","","","key","j","7.423506912442186","853.3333333333334","476","./1_3_Stimuli/S_ambi40.png","他人","Word","他人","Match","j","true","Formal"
"","","","","","psychophysics","360","853732","0.0-9.0-0.0-0.99","519","","j","","","","","","","","","","","","","key","j","7.246812227074317","853.3333333333334","476","./1_3_Stimuli/C_ambi40.png","他人","Image","朋友","Mismatch","f","false","Formal"
"","","","","","psychophysics","361","855612","0.0-9.0-0.0-0.100","729","","f","","","","","","","","","","","","","key","f","7.296238281249771","853.3333333333334","476","./1_3_Stimuli/T_ambi40.png","他人","Word","自我","Mismatch","f","true","Formal"
"","","","","","psychophysics","362","857438","0.0-9.0-0.0-0.101","675","","j","","","","","","","","","","","","","key","j","7.488789256198393","853.3333333333334","476","./1_3_Stimuli/T_ambi40.png","自我","Image","自我","Match","j","true","Formal"
"","","","","","psychophysics","363","859159","0.0-9.0-0.0-0.102","570","","j","","","","","","","","","","","","","key","j","7.489358078602978","853.3333333333334","476","./1_3_Stimuli/S_ambi40.png","他人","Image","他人","Match","j","true","Formal"
"","","","","","psychophysics","364","860883","0.0-9.0-0.0-0.103","572","","f","","","","","","","","","","","","","key","f","7.456913043478119","853.3333333333334","476","./1_3_Stimuli/S_ambi40.png","自我","Word","他人","Mismatch","f","true","Formal"
"","","","","","psychophysics","365","862682","0.0-9.0-0.0-0.104","648","","f","","","","","","","","","","","","","key","f","7.561368644067828","853.3333333333334","476","./1_3_Stimuli/S_ambi40.png","朋友","Image","他人","Mismatch","f","true","Formal"
"","","","","","psychophysics","366","864288","0.0-9.0-0.0-0.105","454","","f","","","","","","","","","","","","","key","f","7.601739336492635","853.3333333333334","476","./1_3_Stimuli/S_ambi40.png","他人","Image","他人","Match","j","false","Formal"
"","","","","","psychophysics","367","866110","0.0-9.0-0.0-0.106","670","","f","","","","","","","","","","","","","key","f","7.427270491803103","853.3333333333334","476","./1_3_Stimuli/T_ambi40.png","朋友","Word","自我","Mismatch","f","true","Formal"
"","","","","","psychophysics","368","867914","0.0-9.0-0.0-0.107","652","","f","","","","","","","","","","","","","key","f","7.340518367347041","853.3333333333334","476","./1_3_Stimuli/C_ambi40.png","自我","Word","朋友","Mismatch","f","true","Formal"
"","","","","","psychophysics","369","869811","0.0-9.0-0.0-0.108","746","","j","","","","","","","","","","","","","key","j","7.772189300411492","853.3333333333334","476","./1_3_Stimuli/C_ambi40.png","朋友","Word","朋友","Match","j","true","Formal"
"","","","","","psychophysics","370","871574","0.0-9.0-0.0-0.109","612","","j","","","","","","","","","","","","","key","j","7.381197478991499","853.3333333333334","476","./1_3_Stimuli/T_ambi40.png","自我","Word","自我","Match","j","true","Formal"
"","","","","","psychophysics","371","873409","0.0-9.0-0.0-0.110","685","","f","","","","","","","","","","","","","key","f","7.453799999999927","853.3333333333334","476","./1_3_Stimuli/T_ambi40.png","他人","Image","自我","Mismatch","f","true","Formal"
"","","","","","psychophysics","372","875636","0.0-9.0-0.0-0.111","1075","","j","","","","","","","","","","","","","key","j","7.167770967741812","853.3333333333334","476","./1_3_Stimuli/C_ambi40.png","朋友","Image","朋友","Match","j","true","Formal"
"","","","","","psychophysics","373","877536","0.0-9.0-0.0-0.112","749","","f","","","","","","","","","","","","","key","f","7.2361992337162","853.3333333333334","476","./1_3_Stimuli/S_ambi40.png","自我","Image","他人","Mismatch","f","true","Formal"
"","","","","","psychophysics","374","879284","0.0-9.0-0.0-0.113","597","","f","","","","","","","","","","","","","key","f","7.577700000000187","853.3333333333334","476","./1_3_Stimuli/C_ambi40.png","自我","Image","朋友","Mismatch","f","true","Formal"
"","","","","","psychophysics","375","881529","0.0-9.0-0.0-0.114","1093","","f","","","","","","","","","","","","","key","f","7.481060606060606","853.3333333333334","476","./1_3_Stimuli/T_ambi40.png","朋友","Image","自我","Mismatch","f","true","Formal"
"","","","","","psychophysics","376","883563","0.0-9.0-0.0-0.115","881","","f","","","","","","","","","","","","","key","f","7.374058394160472","853.3333333333334","476","./1_3_Stimuli/C_ambi40.png","朋友","Image","朋友","Match","j","false","Formal"
"","","","","","psychophysics","377","885334","0.0-9.0-0.0-0.116","618","","f","","","","","","","","","","","","","key","f","7.317626556016879","853.3333333333334","476","./1_3_Stimuli/S_ambi40.png","朋友","Word","他人","Mismatch","f","true","Formal"
"","","","","","psychophysics","378","886889","0.0-9.0-0.0-0.117","404","","j","","","","","","","","","","","","","key","j","7.33833175355467","853.3333333333334","476","./1_3_Stimuli/C_ambi40.png","朋友","Word","朋友","Match","j","true","Formal"
"","","","","","psychophysics","379","888657","0.0-9.0-0.0-0.118","617","","j","","","","","","","","","","","","","key","j","7.539656652360475","853.3333333333334","476","./1_3_Stimuli/T_ambi40.png","自我","Word","自我","Match","j","true","Formal"
"","","","","","psychophysics","380","890495","0.0-9.0-0.0-0.119","687","","j","","","","","","","","","","","","","key","j","7.393408906882674","853.3333333333334","476","./1_3_Stimuli/T_ambi40.png","自我","Image","自我","Match","j","true","Formal"
"","","","","","html-keyboard-response","381","898755","0.0-9.0-1.0","8259","<style>.context{color:white; font-size: 35px; line-height:40px}</style>                        <div><p class='context'>您正确回答了86% 的试次。</p><p class='context'>您的平均反应时为663毫秒。</p><p> <div style = 'color: green'><按任意键进入休息></div></p>"," ","","","","","","","","","","","","","","","","","","","","","","","","",""
"","","","","","html-button-response","382","929192","0.0-9.0-2.0","30433","
                  <p>您当前还剩余5组实验</p>
                  <p>现在是休息时间，当您结束休息后，您可以点击 结束休息 按钮 继续</p>
                  <p>建议休息时间还剩余<span id=""iii"">60</span>秒</p>","0","","","","","","","","","","","","","","","","","","","","","","","","",""
"","","","","","psychophysics","383","930829","0.0-9.0-0.1-0.120","485","","f","","","","","","","","","","","","","key","f","7.352244343891491","853.3333333333334","476","./1_3_Stimuli/S_ambi40.png","自我","Word","他人","Mismatch","f","true","Formal"
"","","","","","psychophysics","384","932533","0.0-9.0-0.1-0.121","553","","f","","","","","","","","","","","","","key","f","7.301188841201325","853.3333333333334","476","./1_3_Stimuli/C_ambi40.png","自我","Image","朋友","Mismatch","f","true","Formal"
"","","","","","psychophysics","385","934211","0.0-9.0-0.1-0.122","526","","j","","","","","","","","","","","","","key","j","7.214108225107858","853.3333333333334","476","./1_3_Stimuli/S_ambi40.png","他人","Word","他人","Match","j","true","Formal"
"","","","","","psychophysics","386","935991","0.0-9.0-0.1-0.123","628","","j","","","","","","","","","","","","","key","j","7.197589430894146","853.3333333333334","476","./1_3_Stimuli/C_ambi40.png","朋友","Word","朋友","Match","j","true","Formal"
"","","","","","psychophysics","387","937631","0.0-9.0-0.1-0.124","488","","j","","","","","","","","","","","","","key","j","7.519336405529937","853.3333333333334","476","./1_3_Stimuli/T_ambi40.png","自我","Word","自我","Match","j","true","Formal"
"","","","","","psychophysics","388","939339","0.0-9.0-0.1-0.125","555","","j","","","","","","","","","","","","","key","j","7.428733624453864","853.3333333333334","476","./1_3_Stimuli/S_ambi40.png","他人","Word","他人","Match","j","true","Formal"
"","","","","","psychophysics","389","940921","0.0-9.0-0.1-0.126","431","","j","","","","","","","","","","","","","key","j","7.474808612440682","853.3333333333334","476","./1_3_Stimuli/S_ambi40.png","他人","Image","他人","Match","j","true","Formal"
"","","","","","psychophysics","390","942525","0.0-9.0-0.1-0.127","453","","j","","","","","","","","","","","","","key","j","7.035207048458528","853.3333333333334","476","./1_3_Stimuli/T_ambi40.png","自我","Image","自我","Match","j","true","Formal"
"","","","","","psychophysics","391","944129","0.0-9.0-0.1-0.128","452","","j","","","","","","","","","","","","","key","j","7.227600000000199","853.3333333333334","476","./1_3_Stimuli/C_ambi40.png","朋友","Image","朋友","Match","j","true","Formal"
"","","","","","psychophysics","392","945833","0.0-9.0-0.1-0.129","553","","j","","","","","","","","","","","","","key","j","7.364411255411271","853.3333333333334","476","./1_3_Stimuli/T_ambi40.png","他人","Image","自我","Mismatch","f","false","Formal"
"","","","","","psychophysics","393","947521","0.0-9.0-0.1-0.130","537","","j","","","","","","","","","","","","","key","j","7.337899563319098","853.3333333333334","476","./1_3_Stimuli/C_ambi40.png","朋友","Word","朋友","Match","j","true","Formal"
"","","","","","psychophysics","394","949198","0.0-9.0-0.1-0.131","525","","f","","","","","","","","","","","","","key","f","7.183000000000024","853.3333333333334","476","./1_3_Stimuli/S_ambi40.png","自我","Image","他人","Mismatch","f","true","Formal"
"","","","","","psychophysics","395","950979","0.0-9.0-0.1-0.132","630","","f","","","","","","","","","","","","","key","f","7.375609958506212","853.3333333333334","476","./1_3_Stimuli/C_ambi40.png","他人","Word","朋友","Mismatch","f","true","Formal"
"","","","","","psychophysics","396","952879","0.0-9.0-0.1-0.133","748","","f","","","","","","","","","","","","","key","f","7.263826923076816","853.3333333333334","476","./1_3_Stimuli/T_ambi40.png","朋友","Image","自我","Mismatch","f","true","Formal"
"","","","","","psychophysics","397","954643","0.0-9.0-0.1-0.134","612","","f","","","","","","","","","","","","","key","f","7.539776824034506","853.3333333333334","476","./1_3_Stimuli/C_ambi40.png","自我","Word","朋友","Mismatch","f","true","Formal"
"","","","","","psychophysics","398","956597","0.0-9.0-0.1-0.135","802","","f","","","","","","","","","","","","","key","f","7.395727969348784","853.3333333333334","476","./1_3_Stimuli/S_ambi40.png","朋友","Image","他人","Mismatch","f","true","Formal"
"","","","","","psychophysics","399","958225","0.0-9.0-0.1-0.136","476","","j","","","","","","","","","","","","","key","j","7.455594470046358","853.3333333333334","476","./1_3_Stimuli/T_ambi40.png","自我","Word","自我","Match","j","true","Formal"
"","","","","","psychophysics","400","959945","0.0-9.0-0.1-0.137","569","","f","","","","","","","","","","","","","key","f","7.732745454545578","853.3333333333334","476","./1_3_Stimuli/C_ambi40.png","朋友","Image","朋友","Match","j","false","Formal"
"","","","","","psychophysics","401","961676","0.0-9.0-0.1-0.138","580","","f","","","","","","","","","","","","","key","f","7.555374449339494","853.3333333333334","476","./1_3_Stimuli/T_ambi40.png","他人","Word","自我","Mismatch","f","true","Formal"
"","","","","","psychophysics","402","963493","0.0-9.0-0.1-0.139","664","","f","","","","","","","","","","","","","key","f","7.338788617886433","853.3333333333334","476","./1_3_Stimuli/C_ambi40.png","他人","Image","朋友","Mismatch","f","true","Formal"
"","","","","","psychophysics","403","965197","0.0-9.0-0.1-0.140","554","","j","","","","","","","","","","","","","key","j","8.029554502369827","853.3333333333334","476","./1_3_Stimuli/T_ambi40.png","自我","Image","自我","Match","j","true","Formal"
