"success","timeout","failed_images","failed_audio","failed_video","trial_type","trial_index","time_elapsed","internal_node_id","rt","stimulus","response","value","item_width_mm","item_height_mm","item_width_px","px2mm","view_dist_mm","item_width_deg","px2deg","scale_factor","win_width_deg","win_height_deg","view_history","response_type","key_press","avg_frame_time","center_x","center_y","image","word","target","valence","matchness","correct_response","correct","exp_condition"
"true","false","[]","[]","[]","preload","0","21","0.0-0.0","","","","","","","","","","","","","","","","","","","","","","","","","","","",""
"","","","","","html-keyboard-response","1","19017","0.0-1.0","18993","
     <p>您好，欢迎参加本次实验。</p>
     <p>为充分保障您的权利，请确保您已经知晓并同意《参与实验同意书》以及《数据公开知情同意书》。</p>
     <p>如果您未见过上述内容，请咨询实验员。</p>
     <p>如果您选择继续实验，则表示您已经清楚两份知情同意书的内容并同意。</p>
     <p> <div style = ""color: green""><按任意键至下页></div> </p>
     "," ","","","","","","","","","","","","","","","","","","","","","","","","",""
"","","","","","html-keyboard-response","2","20622","0.0-2.0-0.0","1604","
      <p>本实验首先需要您填写一些基本个人信息。</p>
      <p> <div style = ""color: green""><按任意键至下页></div></p>
      "," ","","","","","","","","","","","","","","","","","","","","","","","","",""
"","","","","","call-function","3","20622","0.0-2.0-1.0","","","","","","","","","","","","","","","","","","","","","","","","","","","",""
"","","","","","survey-html-form","4","30237","0.0-2.0-2.0","9613","","{""Q0"":""1012""}","","","","","","","","","","","","","","","","","","","","","","","","",""
"","","","","","html-button-response","5","31899","0.0-2.0-3.0","1660","<p style = 'color : white'>您的性别</p>","0","","","","","","","","","","","","","","","","","","","","","","","","",""
"","","","","","survey-html-form","6","38531","0.0-2.0-4.0","6632","","{""Q0"":""2003""}","","","","","","","","","","","","","","","","","","","","","","","","",""
"","","","","","survey-html-form","7","41747","0.0-2.0-5.0","3215","","{""Q0"":""5""}","","","","","","","","","","","","","","","","","","","","","","","","",""
"","","","","","virtual-chinrest","8","160346","0.0-3.0","118599","","","","85.6","53.98","371.52891054287676","4.340920690539829","659.12","7.430578210857536","50","1.0389501033337571","30.72","14.06","","","","","","","","","","","","","",""
"true","","","","","fullscreen","9","163945","0.0-4.0","","","","","","","","","","","","","","","","","","","","","","","","","","","",""
"","","","","","instructions","10","200298","0.0-5.0","36352","","","","","","","","","","","","","","[{""page_index"":0,""viewing_time"":2976},{""page_index"":1,""viewing_time"":18536},{""page_index"":2,""viewing_time"":12280},{""page_index"":3,""viewing_time"":2560}]","","","","","","","","","","","","",""
"","","","","","html-keyboard-response","11","203955","0.0-6.0","null","<count-down title=""""></count-down>","null","","","","","","","","","","","","","","","","","","","","","","","","",""
"","","","","","psychophysics","12","206185","0.0-7.0-0.0-0.0","1063","","f","","","","","","","","","","","","","key","f","16.66136363636377","768","428","./1_3_Stimuli/T_ambi40.png","自我","Image","朋友","Mismatch","j","false","Practice"
"","","","","","html-keyboard-response","13","206493","0.0-7.0-0.0-1.0","null","<span style='color:red; font-size: 70px;'>错误! </span>","null","","","","","","","","","","","","","","","","","","","","","","","","","feedback"
"","","","","","psychophysics","14","208554","0.0-7.0-0.0-0.1","907","","j","","","","","","","","","","","","","key","j","16.662926829268123","768","428","./1_3_Stimuli/C_ambi40.png","他人","Word","他人","Match","f","false","Practice"
"","","","","","html-keyboard-response","15","208858","0.0-7.0-0.0-1.1","null","<span style='color:red; font-size: 70px;'>错误! </span>","null","","","","","","","","","","","","","","","","","","","","","","","","","feedback"
"","","","","","psychophysics","16","210996","0.0-7.0-0.0-0.2","876","","j","","","","","","","","","","","","","key","j","16.662834645669236","768","428","./1_3_Stimuli/C_ambi40.png","他人","Image","他人","Match","f","false","Practice"
"","","","","","html-keyboard-response","17","211324","0.0-7.0-0.0-1.2","null","<span style='color:red; font-size: 70px;'>错误! </span>","null","","","","","","","","","","","","","","","","","","","","","","","","","feedback"
"","","","","","psychophysics","18","213212","0.0-7.0-0.0-0.3","735","","f","","","","","","","","","","","","","key","f","16.661607142857196","768","428","./1_3_Stimuli/T_ambi40.png","朋友","Word","朋友","Match","f","true","Practice"
"","","","","","html-keyboard-response","19","213520","0.0-7.0-0.0-1.3","null","<span style='color:GreenYellow; font-size: 70px;'>正确! </span>","null","","","","","","","","","","","","","","","","","","","","","","","","","feedback"
"","","","","","psychophysics","20","215328","0.0-7.0-0.0-0.4","643","","j","","","","","","","","","","","","","key","j","16.66149532710279","768","428","./1_3_Stimuli/S_ambi40.png","他人","Image","自我","Mismatch","j","true","Practice"
"","","","","","html-keyboard-response","21","215633","0.0-7.0-0.0-1.4","null","<span style='color:GreenYellow; font-size: 70px;'>正确! </span>","null","","","","","","","","","","","","","","","","","","","","","","","","","feedback"
"","","","","","psychophysics","22","217484","0.0-7.0-0.0-0.5","699","","j","","","","","","","","","","","","","key","j","16.661272727272642","768","428","./1_3_Stimuli/T_ambi40.png","自我","Word","朋友","Mismatch","j","true","Practice"
"","","","","","html-keyboard-response","23","217798","0.0-7.0-0.0-1.5","null","<span style='color:GreenYellow; font-size: 70px;'>正确! </span>","null","","","","","","","","","","","","","","","","","","","","","","","","","feedback"
"","","","","","psychophysics","24","220200","0.0-7.0-0.0-0.6","1248","","j","","","","","","","","","","","","","key","j","16.661678321678288","768","428","./1_3_Stimuli/T_ambi40.png","他人","Word","朋友","Mismatch","j","true","Practice"
"","","","","","html-keyboard-response","25","220508","0.0-7.0-0.0-1.6","null","<span style='color:GreenYellow; font-size: 70px;'>正确! </span>","null","","","","","","","","","","","","","","","","","","","","","","","","","feedback"
"","","","","","psychophysics","26","222621","0.0-7.0-0.0-0.7","957","","j","","","","","","","","","","","","","key","j","16.659206349206332","768","428","./1_3_Stimuli/T_ambi40.png","朋友","Image","朋友","Match","f","false","Practice"
"","","","","","html-keyboard-response","27","222928","0.0-7.0-0.0-1.7","null","<span style='color:red; font-size: 70px;'>错误! </span>","null","","","","","","","","","","","","","","","","","","","","","","","","","feedback"
"","","","","","psychophysics","28","225075","0.0-7.0-0.0-0.8","982","","f","","","","","","","","","","","","","key","f","16.661574803149524","768","428","./1_3_Stimuli/S_ambi40.png","自我","Word","自我","Match","f","true","Practice"
"","","","","","html-keyboard-response","29","225382","0.0-7.0-0.0-1.8","null","<span style='color:GreenYellow; font-size: 70px;'>正确! </span>","null","","","","","","","","","","","","","","","","","","","","","","","","","feedback"
"","","","","","psychophysics","30","227986","0.0-7.0-0.0-0.9","1453","","f","","","","","","","","","","","","","key","f","16.66154838709664","768","428","./1_3_Stimuli/C_ambi40.png","他人","Word","他人","Match","f","true","Practice"
"","","","","","html-keyboard-response","31","228295","0.0-7.0-0.0-1.9","null","<span style='color:GreenYellow; font-size: 70px;'>正确! </span>","null","","","","","","","","","","","","","","","","","","","","","","","","","feedback"
"","","","","","psychophysics","32","230035","0.0-7.0-0.0-0.10","585","","f","","","","","","","","","","","","","key","f","16.660776699029103","768","428","./1_3_Stimuli/T_ambi40.png","朋友","Image","朋友","Match","f","true","Practice"
"","","","","","html-keyboard-response","33","230337","0.0-7.0-0.0-1.10","null","<span style='color:GreenYellow; font-size: 70px;'>正确! </span>","null","","","","","","","","","","","","","","","","","","","","","","","","","feedback"
"","","","","","psychophysics","34","233052","0.0-7.0-0.0-0.11","null","","null","","","","","","","","","","","","","key","null","16.661358024691445","768","428","./1_3_Stimuli/S_ambi40.png","朋友","Word","自我","Mismatch","j","false","Practice"
"","","","","","html-keyboard-response","35","233365","0.0-7.0-0.0-1.11","null","<span class='add_' style='color:yellow; font-size: 70px;'> 太慢! </span>","null","","","","","","","","","","","","","","","","","","","","","","","","","feedback"
"","","","","","psychophysics","36","235528","0.0-7.0-0.0-0.12","920","","j","","","","","","","","","","","","","key","j","16.66108527131782","768","428","./1_3_Stimuli/C_ambi40.png","自我","Image","他人","Mismatch","j","true","Practice"
"","","","","","html-keyboard-response","37","235839","0.0-7.0-0.0-1.12","null","<span style='color:GreenYellow; font-size: 70px;'>正确! </span>","null","","","","","","","","","","","","","","","","","","","","","","","","","feedback"
"","","","","","psychophysics","38","237736","0.0-7.0-0.0-0.13","742","","j","","","","","","","","","","","","","key","j","16.6642477876106","768","428","./1_3_Stimuli/S_ambi40.png","朋友","Image","自我","Mismatch","j","true","Practice"
"","","","","","html-keyboard-response","39","238070","0.0-7.0-0.0-1.13","null","<span style='color:GreenYellow; font-size: 70px;'>正确! </span>","null","","","","","","","","","","","","","","","","","","","","","","","","","feedback"
"","","","","","psychophysics","40","240135","0.0-7.0-0.0-0.14","903","","j","","","","","","","","","","","","","key","j","16.66178861788613","768","428","./1_3_Stimuli/C_ambi40.png","他人","Image","他人","Match","f","false","Practice"
"","","","","","html-keyboard-response","41","240436","0.0-7.0-0.0-1.14","null","<span style='color:red; font-size: 70px;'>错误! </span>","null","","","","","","","","","","","","","","","","","","","","","","","","","feedback"
"","","","","","psychophysics","42","242377","0.0-7.0-0.0-0.15","703","","f","","","","","","","","","","","","","key","f","16.66155172413785","768","428","./1_3_Stimuli/S_ambi40.png","自我","Image","自我","Match","f","true","Practice"
"","","","","","html-keyboard-response","43","242689","0.0-7.0-0.0-1.15","null","<span style='color:GreenYellow; font-size: 70px;'>正确! </span>","null","","","","","","","","","","","","","","","","","","","","","","","","","feedback"
"","","","","","psychophysics","44","244523","0.0-7.0-0.0-0.16","672","","j","","","","","","","","","","","","","key","j","16.66185185185195","768","428","./1_3_Stimuli/C_ambi40.png","自我","Word","他人","Mismatch","j","true","Practice"
"","","","","","html-keyboard-response","45","244836","0.0-7.0-0.0-1.16","null","<span style='color:GreenYellow; font-size: 70px;'>正确! </span>","null","","","","","","","","","","","","","","","","","","","","","","","","","feedback"
"","","","","","psychophysics","46","246994","0.0-7.0-0.0-0.17","1003","","f","","","","","","","","","","","","","key","f","16.661550387596872","768","428","./1_3_Stimuli/T_ambi40.png","朋友","Word","朋友","Match","f","true","Practice"
"","","","","","html-keyboard-response","47","247303","0.0-7.0-0.0-1.17","null","<span style='color:GreenYellow; font-size: 70px;'>正确! </span>","null","","","","","","","","","","","","","","","","","","","","","","","","","feedback"
"","","","","","psychophysics","48","249425","0.0-7.0-0.0-0.18","959","","j","","","","","","","","","","","","","key","j","16.66269841269841","768","428","./1_3_Stimuli/C_ambi40.png","朋友","Image","他人","Mismatch","j","true","Practice"
"","","","","","html-keyboard-response","49","249732","0.0-7.0-0.0-1.18","null","<span style='color:GreenYellow; font-size: 70px;'>正确! </span>","null","","","","","","","","","","","","","","","","","","","","","","","","","feedback"
"","","","","","psychophysics","50","251694","0.0-7.0-0.0-0.19","797","","j","","","","","","","","","","","","","key","j","16.66119658119671","768","428","./1_3_Stimuli/S_ambi40.png","他人","Word","自我","Mismatch","j","true","Practice"
"","","","","","html-keyboard-response","51","251995","0.0-7.0-0.0-1.19","null","<span style='color:GreenYellow; font-size: 70px;'>正确! </span>","null","","","","","","","","","","","","","","","","","","","","","","","","","feedback"
"","","","","","psychophysics","52","254050","0.0-7.0-0.0-0.20","899","","f","","","","","","","","","","","","","key","f","16.661475409835923","768","428","./1_3_Stimuli/T_ambi40.png","他人","Image","朋友","Mismatch","j","false","Practice"
"","","","","","html-keyboard-response","53","254363","0.0-7.0-0.0-1.20","null","<span style='color:red; font-size: 70px;'>错误! </span>","null","","","","","","","","","","","","","","","","","","","","","","","","","feedback"
"","","","","","psychophysics","54","256472","0.0-7.0-0.0-0.21","948","","j","","","","","","","","","","","","","key","j","16.660793650793725","768","428","./1_3_Stimuli/S_ambi40.png","自我","Image","自我","Match","f","false","Practice"
"","","","","","html-keyboard-response","55","256780","0.0-7.0-0.0-1.21","null","<span style='color:red; font-size: 70px;'>错误! </span>","null","","","","","","","","","","","","","","","","","","","","","","","","","feedback"
"","","","","","psychophysics","56","258646","0.0-7.0-0.0-0.22","666","","j","","","","","","","","","","","","","key","j","16.66180180180199","768","428","./1_3_Stimuli/C_ambi40.png","朋友","Word","他人","Mismatch","j","true","Practice"
"","","","","","html-keyboard-response","57","258976","0.0-7.0-0.0-1.22","null","<span style='color:GreenYellow; font-size: 70px;'>正确! </span>","null","","","","","","","","","","","","","","","","","","","","","","","","","feedback"
"","","","","","psychophysics","58","260840","0.0-7.0-0.0-0.23","707","","f","","","","","","","","","","","","","key","f","16.659459459459566","768","428","./1_3_Stimuli/S_ambi40.png","自我","Word","自我","Match","f","true","Practice"
"","","","","","html-keyboard-response","59","261166","0.0-7.0-0.0-1.23","null","<span style='color:GreenYellow; font-size: 70px;'>正确! </span>","null","","","","","","","","","","","","","","","","","","","","","","","","","feedback"
"","","","","","html-keyboard-response","60","263327","0.0-7.0-1.0-0.0","2161","<style>.context{color:white; font-size: 35px; line-height:40px}</style>                        <div><p class='context'>您正确回答了67% 的试次。</p><p class='context'>您的平均反应时为845毫秒。</p><p> <div style = 'color: green'><按空格键至下页></div></p>"," ","","","","","","","","","","","","","","","","","","","","","","","","",""
"","","","","","instructions","61","277571","0.0-7.0-1.0-1.0","14244","","","","","","","","","","","","","","[{""page_index"":0,""viewing_time"":2131},{""page_index"":1,""viewing_time"":8232},{""page_index"":2,""viewing_time"":3881}]","","","","","","","","","","","","",""
"","","","","","psychophysics","62","279798","0.0-7.1-0.1-0.24","1071","","j","","","","","","","","","","","","","key","j","16.658947368421156","768","428","./1_3_Stimuli/C_ambi40.png","他人","Word","他人","Match","f","false","Practice"
"","","","","","html-keyboard-response","63","280113","0.0-7.1-0.1-1.24","null","<span style='color:red; font-size: 70px;'>错误! </span>","null","","","","","","","","","","","","","","","","","","","","","","","","","feedback"
"","","","","","psychophysics","64","281949","0.0-7.1-0.1-0.25","683","","j","","","","","","","","","","","","","key","j","16.66623853211005","768","428","./1_3_Stimuli/C_ambi40.png","自我","Word","他人","Mismatch","j","true","Practice"
"","","","","","html-keyboard-response","65","282261","0.0-7.1-0.1-1.25","null","<span style='color:GreenYellow; font-size: 70px;'>正确! </span>","null","","","","","","","","","","","","","","","","","","","","","","","","","feedback"
"","","","","","psychophysics","66","284121","0.0-7.1-0.1-0.26","694","","j","","","","","","","","","","","","","key","j","16.658000000000044","768","428","./1_3_Stimuli/S_ambi40.png","他人","Word","自我","Mismatch","j","true","Practice"
"","","","","","html-keyboard-response","67","284423","0.0-7.1-0.1-1.26","null","<span style='color:GreenYellow; font-size: 70px;'>正确! </span>","null","","","","","","","","","","","","","","","","","","","","","","","","","feedback"
"","","","","","psychophysics","68","286233","0.0-7.1-0.1-0.27","546","","j","","","","","","","","","","","","","key","j","16.662242990654075","768","428","./1_3_Stimuli/C_ambi40.png","自我","Image","他人","Mismatch","j","true","Practice"
"","","","","","html-keyboard-response","69","286547","0.0-7.1-0.1-1.27","null","<span style='color:GreenYellow; font-size: 70px;'>正确! </span>","null","","","","","","","","","","","","","","","","","","","","","","","","","feedback"
"","","","","","psychophysics","70","288303","0.0-7.1-0.1-0.28","602","","f","","","","","","","","","","","","","key","f","16.666153846153556","768","428","./1_3_Stimuli/C_ambi40.png","他人","Image","他人","Match","f","true","Practice"
"","","","","","html-keyboard-response","71","288607","0.0-7.1-0.1-1.28","null","<span style='color:GreenYellow; font-size: 70px;'>正确! </span>","null","","","","","","","","","","","","","","","","","","","","","","","","","feedback"
"","","","","","psychophysics","72","290373","0.0-7.1-0.1-0.29","582","","j","","","","","","","","","","","","","key","j","16.661730769230836","768","428","./1_3_Stimuli/S_ambi40.png","自我","Word","自我","Match","f","false","Practice"
"","","","","","html-keyboard-response","73","290682","0.0-7.1-0.1-1.29","null","<span style='color:red; font-size: 70px;'>错误! </span>","null","","","","","","","","","","","","","","","","","","","","","","","","","feedback"
"","","","","","psychophysics","74","292506","0.0-7.1-0.1-0.30","656","","f","","","","","","","","","","","","","key","f","16.662037037037038","768","428","./1_3_Stimuli/S_ambi40.png","自我","Word","自我","Match","f","true","Practice"
"","","","","","html-keyboard-response","75","292833","0.0-7.1-0.1-1.30","null","<span style='color:GreenYellow; font-size: 70px;'>正确! </span>","null","","","","","","","","","","","","","","","","","","","","","","","","","feedback"
"","","","","","psychophysics","76","294655","0.0-7.1-0.1-0.31","669","","j","","","","","","","","","","","","","key","j","16.66092592592597","768","428","./1_3_Stimuli/S_ambi40.png","他人","Image","自我","Mismatch","j","true","Practice"
"","","","","","html-keyboard-response","77","294965","0.0-7.1-0.1-1.31","null","<span style='color:GreenYellow; font-size: 70px;'>正确! </span>","null","","","","","","","","","","","","","","","","","","","","","","","","","feedback"
"","","","","","psychophysics","78","296679","0.0-7.1-0.1-0.32","562","","f","","","","","","","","","","","","","key","f","16.664117647059303","768","428","./1_3_Stimuli/T_ambi40.png","朋友","Word","朋友","Match","f","true","Practice"
"","","","","","html-keyboard-response","79","296991","0.0-7.1-0.1-1.32","null","<span style='color:GreenYellow; font-size: 70px;'>正确! </span>","null","","","","","","","","","","","","","","","","","","","","","","","","","feedback"
"","","","","","psychophysics","80","298911","0.0-7.1-0.1-0.33","768","","j","","","","","","","","","","","","","key","j","16.663508771929436","768","428","./1_3_Stimuli/T_ambi40.png","自我","Word","朋友","Mismatch","j","true","Practice"
"","","","","","html-keyboard-response","81","299224","0.0-7.1-0.1-1.33","null","<span style='color:GreenYellow; font-size: 70px;'>正确! </span>","null","","","","","","","","","","","","","","","","","","","","","","","","","feedback"
"","","","","","psychophysics","82","301020","0.0-7.1-0.1-0.34","641","","f","","","","","","","","","","","","","key","f","16.65773584905634","768","428","./1_3_Stimuli/S_ambi40.png","自我","Image","自我","Match","f","true","Practice"
"","","","","","html-keyboard-response","83","301328","0.0-7.1-0.1-1.34","null","<span style='color:GreenYellow; font-size: 70px;'>正确! </span>","null","","","","","","","","","","","","","","","","","","","","","","","","","feedback"
"","","","","","psychophysics","84","303140","0.0-7.1-0.1-0.35","658","","j","","","","","","","","","","","","","key","j","16.661111111110788","768","428","./1_3_Stimuli/S_ambi40.png","朋友","Word","自我","Mismatch","j","true","Practice"
"","","","","","html-keyboard-response","85","303447","0.0-7.1-0.1-1.35","null","<span style='color:GreenYellow; font-size: 70px;'>正确! </span>","null","","","","","","","","","","","","","","","","","","","","","","","","","feedback"
"","","","","","psychophysics","86","305470","0.0-7.1-0.1-0.36","867","","j","","","","","","","","","","","","","key","j","16.66115702479339","768","428","./1_3_Stimuli/T_ambi40.png","他人","Word","朋友","Mismatch","j","true","Practice"
"","","","","","html-keyboard-response","87","305773","0.0-7.1-0.1-1.36","null","<span style='color:GreenYellow; font-size: 70px;'>正确! </span>","null","","","","","","","","","","","","","","","","","","","","","","","","","feedback"
"","","","","","psychophysics","88","307624","0.0-7.1-0.1-0.37","699","","j","","","","","","","","","","","","","key","j","16.66327272727292","768","428","./1_3_Stimuli/T_ambi40.png","他人","Image","朋友","Mismatch","j","true","Practice"
"","","","","","html-keyboard-response","89","307939","0.0-7.1-0.1-1.37","null","<span style='color:GreenYellow; font-size: 70px;'>正确! </span>","null","","","","","","","","","","","","","","","","","","","","","","","","","feedback"
"","","","","","psychophysics","90","309735","0.0-7.1-0.1-0.38","605","","f","","","","","","","","","","","","","key","f","16.66130841121504","768","428","./1_3_Stimuli/S_ambi40.png","自我","Image","自我","Match","f","true","Practice"
"","","","","","html-keyboard-response","91","310041","0.0-7.1-0.1-1.38","null","<span style='color:GreenYellow; font-size: 70px;'>正确! </span>","null","","","","","","","","","","","","","","","","","","","","","","","","","feedback"
"","","","","","psychophysics","92","312128","0.0-7.1-0.1-0.39","932","","j","","","","","","","","","","","","","key","j","16.66193548387063","768","428","./1_3_Stimuli/C_ambi40.png","他人","Image","他人","Match","f","false","Practice"
"","","","","","html-keyboard-response","93","312441","0.0-7.1-0.1-1.39","null","<span style='color:red; font-size: 70px;'>错误! </span>","null","","","","","","","","","","","","","","","","","","","","","","","","","feedback"
"","","","","","psychophysics","94","314226","0.0-7.1-0.1-0.40","627","","j","","","","","","","","","","","","","key","j","16.661698113207677","768","428","./1_3_Stimuli/T_ambi40.png","自我","Image","朋友","Mismatch","j","true","Practice"
"","","","","","html-keyboard-response","95","314536","0.0-7.1-0.1-1.40","null","<span style='color:GreenYellow; font-size: 70px;'>正确! </span>","null","","","","","","","","","","","","","","","","","","","","","","","","","feedback"
"","","","","","psychophysics","96","316443","0.0-7.1-0.1-0.41","756","","f","","","","","","","","","","","","","key","f","16.66194690265528","768","428","./1_3_Stimuli/T_ambi40.png","朋友","Word","朋友","Match","f","true","Practice"
"","","","","","html-keyboard-response","97","316749","0.0-7.1-0.1-1.41","null","<span style='color:GreenYellow; font-size: 70px;'>正确! </span>","null","","","","","","","","","","","","","","","","","","","","","","","","","feedback"
"","","","","","psychophysics","98","318826","0.0-7.1-0.1-0.42","919","","f","","","","","","","","","","","","","key","f","16.662764227641954","768","428","./1_3_Stimuli/C_ambi40.png","他人","Word","他人","Match","f","true","Practice"
"","","","","","html-keyboard-response","99","319136","0.0-7.1-0.1-1.42","null","<span style='color:GreenYellow; font-size: 70px;'>正确! </span>","null","","","","","","","","","","","","","","","","","","","","","","","","","feedback"
"","","","","","psychophysics","100","320939","0.0-7.1-0.1-0.43","623","","j","","","","","","","","","","","","","key","j","16.65794392523332","768","428","./1_3_Stimuli/C_ambi40.png","朋友","Image","他人","Mismatch","j","true","Practice"
"","","","","","html-keyboard-response","101","321254","0.0-7.1-0.1-1.43","null","<span style='color:GreenYellow; font-size: 70px;'>正确! </span>","null","","","","","","","","","","","","","","","","","","","","","","","","","feedback"
"","","","","","psychophysics","102","323071","0.0-7.1-0.1-0.44","663","","j","","","","","","","","","","","","","key","j","16.658518518518477","768","428","./1_3_Stimuli/S_ambi40.png","朋友","Image","自我","Mismatch","j","true","Practice"
"","","","","","html-keyboard-response","103","323423","0.0-7.1-0.1-1.44","null","<span style='color:GreenYellow; font-size: 70px;'>正确! </span>","null","","","","","","","","","","","","","","","","","","","","","","","","","feedback"
"","","","","","psychophysics","104","325463","0.0-7.1-0.1-0.45","883","","j","","","","","","","","","","","","","key","j","16.659508196721006","768","428","./1_3_Stimuli/C_ambi40.png","朋友","Word","他人","Mismatch","j","true","Practice"
"","","","","","html-keyboard-response","105","325778","0.0-7.1-0.1-1.45","null","<span style='color:GreenYellow; font-size: 70px;'>正确! </span>","null","","","","","","","","","","","","","","","","","","","","","","","","","feedback"
"","","","","","psychophysics","106","327655","0.0-7.1-0.1-0.46","722","","j","","","","","","","","","","","","","key","j","16.66270270270268","768","428","./1_3_Stimuli/T_ambi40.png","朋友","Image","朋友","Match","f","false","Practice"
"","","","","","html-keyboard-response","107","327967","0.0-7.1-0.1-1.46","null","<span style='color:red; font-size: 70px;'>错误! </span>","null","","","","","","","","","","","","","","","","","","","","","","","","","feedback"
"","","","","","psychophysics","108","329850","0.0-7.1-0.1-0.47","731","","f","","","","","","","","","","","","","key","f","16.662678571428323","768","428","./1_3_Stimuli/T_ambi40.png","朋友","Image","朋友","Match","f","true","Practice"
"","","","","","html-keyboard-response","109","330164","0.0-7.1-0.1-1.47","null","<span style='color:GreenYellow; font-size: 70px;'>正确! </span>","null","","","","","","","","","","","","","","","","","","","","","","","","","feedback"
"","","","","","html-keyboard-response","110","331958","0.0-7.1-1.1-0.1","1793","<style>.context{color:white; font-size: 35px; line-height:40px}</style>                        <div><p class='context'>您正确回答了83% 的试次。</p><p class='context'>您的平均反应时为693毫秒。</p><p> <div style = 'color: green'><按空格键至下页></div></p>"," ","","","","","","","","","","","","","","","","","","","","","","","","",""
"","","","","","instructions","111","343482","0.0-7.1-1.1-1.1","11524","","","","","","","","","","","","","","[{""page_index"":0,""viewing_time"":1228},{""page_index"":1,""viewing_time"":2345},{""page_index"":2,""viewing_time"":7951}]","","","","","","","","","","","","",""
"","","","","","psychophysics","112","345551","0.0-7.2-0.2-0.48","907","","f","","","","","","","","","","","","","key","f","16.66178861788637","768","428","./1_3_Stimuli/T_ambi40.png","朋友","Image","朋友","Match","f","true","Practice"
"","","","","","html-keyboard-response","113","345857","0.0-7.2-0.2-1.48","null","<span style='color:GreenYellow; font-size: 70px;'>正确! </span>","null","","","","","","","","","","","","","","","","","","","","","","","","","feedback"
"","","","","","psychophysics","114","347740","0.0-7.2-0.2-0.49","731","","j","","","","","","","","","","","","","key","j","16.661071428571763","768","428","./1_3_Stimuli/S_ambi40.png","朋友","Word","自我","Mismatch","j","true","Practice"
"","","","","","html-keyboard-response","115","348042","0.0-7.2-0.2-1.49","null","<span style='color:GreenYellow; font-size: 70px;'>正确! </span>","null","","","","","","","","","","","","","","","","","","","","","","","","","feedback"
"","","","","","psychophysics","116","350058","0.0-7.2-0.2-0.50","864","","j","","","","","","","","","","","","","key","j","16.660833333333237","768","428","./1_3_Stimuli/C_ambi40.png","自我","Word","他人","Mismatch","j","true","Practice"
"","","","","","html-keyboard-response","117","350365","0.0-7.2-0.2-1.50","null","<span style='color:GreenYellow; font-size: 70px;'>正确! </span>","null","","","","","","","","","","","","","","","","","","","","","","","","","feedback"
"","","","","","psychophysics","118","352166","0.0-7.2-0.2-0.51","648","","j","","","","","","","","","","","","","key","j","16.66186915887857","768","428","./1_3_Stimuli/C_ambi40.png","朋友","Word","他人","Mismatch","j","true","Practice"
"","","","","","html-keyboard-response","119","352468","0.0-7.2-0.2-1.51","null","<span style='color:GreenYellow; font-size: 70px;'>正确! </span>","null","","","","","","","","","","","","","","","","","","","","","","","","","feedback"
"","","","","","psychophysics","120","354389","0.0-7.2-0.2-0.52","664","","f","","","","","","","","","","","","","key","f","16.661929824561586","768","428","./1_3_Stimuli/T_ambi40.png","朋友","Image","朋友","Match","f","true","Practice"
"","","","","","html-keyboard-response","121","354741","0.0-7.2-0.2-1.52","null","<span style='color:GreenYellow; font-size: 70px;'>正确! </span>","null","","","","","","","","","","","","","","","","","","","","","","","","","feedback"
"","","","","","psychophysics","122","356952","0.0-7.2-0.2-0.53","1058","","f","","","","","","","","","","","","","key","f","16.662121212121388","768","428","./1_3_Stimuli/C_ambi40.png","他人","Image","他人","Match","f","true","Practice"
"","","","","","html-keyboard-response","123","357259","0.0-7.2-0.2-1.53","null","<span style='color:GreenYellow; font-size: 70px;'>正确! </span>","null","","","","","","","","","","","","","","","","","","","","","","","","","feedback"
"","","","","","psychophysics","124","359025","0.0-7.2-0.2-0.54","610","","f","","","","","","","","","","","","","key","f","16.659619047619135","768","428","./1_3_Stimuli/S_ambi40.png","自我","Image","自我","Match","f","true","Practice"
"","","","","","html-keyboard-response","125","359333","0.0-7.2-0.2-1.54","null","<span style='color:GreenYellow; font-size: 70px;'>正确! </span>","null","","","","","","","","","","","","","","","","","","","","","","","","","feedback"
"","","","","","psychophysics","126","361191","0.0-7.2-0.2-0.55","704","","f","","","","","","","","","","","","","key","f","16.662000000000063","768","428","./1_3_Stimuli/S_ambi40.png","自我","Word","自我","Match","f","true","Practice"
"","","","","","html-keyboard-response","127","361499","0.0-7.2-0.2-1.55","null","<span style='color:GreenYellow; font-size: 70px;'>正确! </span>","null","","","","","","","","","","","","","","","","","","","","","","","","","feedback"
"","","","","","psychophysics","128","363629","0.0-7.2-0.2-0.56","974","","j","","","","","","","","","","","","","key","j","16.663809523809174","768","428","./1_3_Stimuli/T_ambi40.png","自我","Word","朋友","Mismatch","j","true","Practice"
"","","","","","html-keyboard-response","129","363935","0.0-7.2-0.2-1.56","null","<span style='color:GreenYellow; font-size: 70px;'>正确! </span>","null","","","","","","","","","","","","","","","","","","","","","","","","","feedback"
"","","","","","psychophysics","130","366129","0.0-7.2-0.2-0.57","1042","","j","","","","","","","","","","","","","key","j","16.66184615384644","768","428","./1_3_Stimuli/S_ambi40.png","他人","Image","自我","Mismatch","j","true","Practice"
"","","","","","html-keyboard-response","131","366437","0.0-7.2-0.2-1.57","null","<span style='color:GreenYellow; font-size: 70px;'>正确! </span>","null","","","","","","","","","","","","","","","","","","","","","","","","","feedback"
"","","","","","psychophysics","132","368366","0.0-7.2-0.2-0.58","775","","f","","","","","","","","","","","","","key","f","16.6622608695655","768","428","./1_3_Stimuli/S_ambi40.png","自我","Word","自我","Match","f","true","Practice"
"","","","","","html-keyboard-response","133","368678","0.0-7.2-0.2-1.58","null","<span style='color:GreenYellow; font-size: 70px;'>正确! </span>","null","","","","","","","","","","","","","","","","","","","","","","","","","feedback"
"","","","","","psychophysics","134","370910","0.0-7.2-0.2-0.59","1048","","f","","","","","","","","","","","","","key","f","16.664210526315983","768","428","./1_3_Stimuli/T_ambi40.png","他人","Image","朋友","Mismatch","j","false","Practice"
"","","","","","html-keyboard-response","135","371216","0.0-7.2-0.2-1.59","null","<span style='color:red; font-size: 70px;'>错误! </span>","null","","","","","","","","","","","","","","","","","","","","","","","","","feedback"
"","","","","","psychophysics","136","373248","0.0-7.2-0.2-0.60","878","","j","","","","","","","","","","","","","key","j","16.662809917355467","768","428","./1_3_Stimuli/C_ambi40.png","他人","Word","他人","Match","f","false","Practice"
"","","","","","html-keyboard-response","137","373558","0.0-7.2-0.2-1.60","null","<span style='color:red; font-size: 70px;'>错误! </span>","null","","","","","","","","","","","","","","","","","","","","","","","","","feedback"
"","","","","","psychophysics","138","375777","0.0-7.2-0.2-0.61","1067","","j","","","","","","","","","","","","","key","j","16.66166666666686","768","428","./1_3_Stimuli/C_ambi40.png","他人","Word","他人","Match","f","false","Practice"
"","","","","","html-keyboard-response","139","376079","0.0-7.2-0.2-1.61","null","<span style='color:red; font-size: 70px;'>错误! </span>","null","","","","","","","","","","","","","","","","","","","","","","","","","feedback"
"","","","","","psychophysics","140","378014","0.0-7.2-0.2-0.62","781","","j","","","","","","","","","","","","","key","j","16.660347826086976","768","428","./1_3_Stimuli/T_ambi40.png","他人","Word","朋友","Mismatch","j","true","Practice"
"","","","","","html-keyboard-response","141","378323","0.0-7.2-0.2-1.62","null","<span style='color:GreenYellow; font-size: 70px;'>正确! </span>","null","","","","","","","","","","","","","","","","","","","","","","","","","feedback"
"","","","","","psychophysics","142","380406","0.0-7.2-0.2-0.63","923","","f","","","","","","","","","","","","","key","f","16.660967741935654","768","428","./1_3_Stimuli/S_ambi40.png","自我","Image","自我","Match","f","true","Practice"
"","","","","","html-keyboard-response","143","380716","0.0-7.2-0.2-1.63","null","<span style='color:GreenYellow; font-size: 70px;'>正确! </span>","null","","","","","","","","","","","","","","","","","","","","","","","","","feedback"
"","","","","","psychophysics","144","382652","0.0-7.2-0.2-0.64","783","","j","","","","","","","","","","","","","key","j","16.66069565217375","768","428","./1_3_Stimuli/S_ambi40.png","朋友","Image","自我","Mismatch","j","true","Practice"
"","","","","","html-keyboard-response","145","382958","0.0-7.2-0.2-1.64","null","<span style='color:GreenYellow; font-size: 70px;'>正确! </span>","null","","","","","","","","","","","","","","","","","","","","","","","","","feedback"
"","","","","","psychophysics","146","384917","0.0-7.2-0.2-0.65","802","","f","","","","","","","","","","","","","key","f","16.662241379310405","768","428","./1_3_Stimuli/C_ambi40.png","他人","Image","他人","Match","f","true","Practice"
"","","","","","html-keyboard-response","147","385221","0.0-7.2-0.2-1.65","null","<span style='color:GreenYellow; font-size: 70px;'>正确! </span>","null","","","","","","","","","","","","","","","","","","","","","","","","","feedback"
"","","","","","psychophysics","148","387004","0.0-7.2-0.2-0.66","628","","j","","","","","","","","","","","","","key","j","16.661698113207677","768","428","./1_3_Stimuli/T_ambi40.png","自我","Image","朋友","Mismatch","j","true","Practice"
"","","","","","html-keyboard-response","149","387312","0.0-7.2-0.2-1.66","null","<span style='color:GreenYellow; font-size: 70px;'>正确! </span>","null","","","","","","","","","","","","","","","","","","","","","","","","","feedback"
"","","","","","psychophysics","150","389327","0.0-7.2-0.2-0.67","863","","f","","","","","","","","","","","","","key","f","16.6636666666663","768","428","./1_3_Stimuli/T_ambi40.png","朋友","Word","朋友","Match","f","true","Practice"
"","","","","","html-keyboard-response","151","389632","0.0-7.2-0.2-1.67","null","<span style='color:GreenYellow; font-size: 70px;'>正确! </span>","null","","","","","","","","","","","","","","","","","","","","","","","","","feedback"
"","","","","","psychophysics","152","391610","0.0-7.2-0.2-0.68","821","","j","","","","","","","","","","","","","key","j","16.661525423728794","768","428","./1_3_Stimuli/C_ambi40.png","自我","Image","他人","Mismatch","j","true","Practice"
"","","","","","html-keyboard-response","153","391943","0.0-7.2-0.2-1.68","null","<span style='color:GreenYellow; font-size: 70px;'>正确! </span>","null","","","","","","","","","","","","","","","","","","","","","","","","","feedback"
"","","","","","psychophysics","154","393911","0.0-7.2-0.2-0.69","817","","j","","","","","","","","","","","","","key","j","16.66119658119646","768","428","./1_3_Stimuli/C_ambi40.png","朋友","Image","他人","Mismatch","j","true","Practice"
"","","","","","html-keyboard-response","155","394243","0.0-7.2-0.2-1.69","null","<span style='color:GreenYellow; font-size: 70px;'>正确! </span>","null","","","","","","","","","","","","","","","","","","","","","","","","","feedback"
"","","","","","psychophysics","156","396218","0.0-7.2-0.2-0.70","821","","f","","","","","","","","","","","","","key","f","16.65965811965806","768","428","./1_3_Stimuli/T_ambi40.png","朋友","Word","朋友","Match","f","true","Practice"
"","","","","","html-keyboard-response","157","396533","0.0-7.2-0.2-1.70","null","<span style='color:GreenYellow; font-size: 70px;'>正确! </span>","null","","","","","","","","","","","","","","","","","","","","","","","","","feedback"
"","","","","","psychophysics","158","398504","0.0-7.2-0.2-0.71","819","","j","","","","","","","","","","","","","key","j","16.661525423728794","768","428","./1_3_Stimuli/S_ambi40.png","他人","Word","自我","Mismatch","j","true","Practice"
"","","","","","html-keyboard-response","159","398808","0.0-7.2-0.2-1.71","null","<span style='color:GreenYellow; font-size: 70px;'>正确! </span>","null","","","","","","","","","","","","","","","","","","","","","","","","","feedback"
"","","","","","html-keyboard-response","160","418676","0.0-8.0","19867","<style>.context{color:white; font-size: 35px; line-height:40px}</style>                          <div><p class='context'>您正确回答了88% 的试次。</p><p class='context'>您的平均反应时为811毫秒。</p><p class='context'>恭喜您完成练习。现在请休息3~5分钟。</p><p class='context'>之后，按任意键进入正式实验。需要注意的是，正式实验将不再提供反应是否正确的反馈。</p><p class='footer' style='font-size: 35px; line-height:40px;'>请在进入正式实验实验之前将您的<span style='color: lightgreen;'>食指</span>放在电脑键盘的相应键位上进行按键。</p>"," ","","","","","","","","","","","","","","","","","","","","","","","","",""
"","","","","","psychophysics","161","420833","0.0-9.0-0.0-0.0","999","","f","","","","","","","","","","","","","key","f","16.66403100775219","768","428","./1_3_Stimuli/S_ambi40.png","自我","Word","自我","Match","f","true","Formal"
"","","","","","psychophysics","162","423197","0.0-9.0-0.0-0.1","1103","","j","","","","","","","","","","","","","key","j","16.661560283687727","768","428","./1_3_Stimuli/T_ambi40.png","他人","Word","朋友","Mismatch","j","true","Formal"
"","","","","","psychophysics","163","425092","0.0-9.0-0.0-0.2","741","","f","","","","","","","","","","","","","key","f","16.66357142857149","768","428","./1_3_Stimuli/S_ambi40.png","自我","Image","自我","Match","f","true","Formal"
"","","","","","psychophysics","164","427249","0.0-9.0-0.0-0.3","996","","j","","","","","","","","","","","","","key","j","16.662635658915036","768","428","./1_3_Stimuli/C_ambi40.png","自我","Image","他人","Mismatch","j","true","Formal"
"","","","","","psychophysics","165","429365","0.0-9.0-0.0-0.4","822","","j","","","","","","","","","","","","","key","j","16.659206349206332","768","428","./1_3_Stimuli/T_ambi40.png","自我","Image","朋友","Mismatch","j","true","Formal"
"","","","","","psychophysics","166","431597","0.0-9.0-0.0-0.5","1071","","j","","","","","","","","","","","","","key","j","16.660751879699284","768","428","./1_3_Stimuli/C_ambi40.png","他人","Image","他人","Match","f","false","Formal"
"","","","","","psychophysics","167","433690","0.0-9.0-0.0-0.6","846","","f","","","","","","","","","","","","","key","f","16.66322580645154","768","428","./1_3_Stimuli/T_ambi40.png","朋友","Word","朋友","Match","f","true","Formal"
"","","","","","psychophysics","168","435755","0.0-9.0-0.0-0.7","887","","f","","","","","","","","","","","","","key","f","16.663739837398488","768","428","./1_3_Stimuli/T_ambi40.png","朋友","Image","朋友","Match","f","true","Formal"
"","","","","","psychophysics","169","437593","0.0-9.0-0.0-0.8","671","","j","","","","","","","","","","","","","key","j","16.661090909090657","768","428","./1_3_Stimuli/S_ambi40.png","朋友","Image","自我","Mismatch","j","true","Formal"
"","","","","","psychophysics","170","439740","0.0-9.0-0.0-0.9","871","","f","","","","","","","","","","","","","key","f","16.663125000000036","768","428","./1_3_Stimuli/T_ambi40.png","他人","Image","朋友","Mismatch","j","false","Formal"
"","","","","","psychophysics","171","441721","0.0-9.0-0.0-0.10","748","","j","","","","","","","","","","","","","key","j","16.66102564102586","768","428","./1_3_Stimuli/C_ambi40.png","自我","Word","他人","Mismatch","j","true","Formal"
"","","","","","psychophysics","172","443643","0.0-9.0-0.0-0.11","647","","f","","","","","","","","","","","","","key","f","16.661391304347806","768","428","./1_3_Stimuli/T_ambi40.png","朋友","Word","朋友","Match","f","true","Formal"
"","","","","","psychophysics","173","445708","0.0-9.0-0.0-0.12","907","","f","","","","","","","","","","","","","key","f","16.65691056910607","768","428","./1_3_Stimuli/C_ambi40.png","他人","Word","他人","Match","f","true","Formal"
"","","","","","psychophysics","174","447446","0.0-9.0-0.0-0.13","573","","j","","","","","","","","","","","","","key","j","16.661165048543463","768","428","./1_3_Stimuli/S_ambi40.png","他人","Word","自我","Mismatch","j","true","Formal"
"","","","","","psychophysics","175","449341","0.0-9.0-0.0-0.14","739","","j","","","","","","","","","","","","","key","j","16.663716814159294","768","428","./1_3_Stimuli/S_ambi40.png","朋友","Word","自我","Mismatch","j","true","Formal"
"","","","","","psychophysics","176","451429","0.0-9.0-0.0-0.15","925","","j","","","","","","","","","","","","","key","j","16.663064516128806","768","428","./1_3_Stimuli/S_ambi40.png","他人","Image","自我","Mismatch","j","true","Formal"
"","","","","","psychophysics","177","453744","0.0-9.0-0.0-0.16","1161","","f","","","","","","","","","","","","","key","f","16.663188405797236","768","428","./1_3_Stimuli/T_ambi40.png","朋友","Image","朋友","Match","f","true","Formal"
"","","","","","psychophysics","178","455902","0.0-9.0-0.0-0.17","999","","j","","","","","","","","","","","","","key","j","16.661395348837264","768","428","./1_3_Stimuli/C_ambi40.png","朋友","Word","他人","Mismatch","j","true","Formal"
"","","","","","psychophysics","179","457847","0.0-9.0-0.0-0.18","666","","j","","","","","","","","","","","","","key","j","16.658260869564813","768","428","./1_3_Stimuli/T_ambi40.png","自我","Word","朋友","Mismatch","j","true","Formal"
"","","","","","psychophysics","180","459932","0.0-9.0-0.0-0.19","925","","j","","","","","","","","","","","","","key","j","16.65903225806476","768","428","./1_3_Stimuli/C_ambi40.png","朋友","Image","他人","Mismatch","j","true","Formal"
"","","","","","psychophysics","181","461830","0.0-9.0-0.0-0.20","736","","f","","","","","","","","","","","","","key","f","16.65625","768","428","./1_3_Stimuli/S_ambi40.png","自我","Word","自我","Match","f","true","Formal"
"","","","","","psychophysics","182","463811","0.0-9.0-0.0-0.21","829","","j","","","","","","","","","","","","","key","j","16.661186440677632","768","428","./1_3_Stimuli/C_ambi40.png","他人","Word","他人","Match","f","false","Formal"
"","","","","","psychophysics","183","465568","0.0-9.0-0.0-0.22","594","","f","","","","","","","","","","","","","key","f","16.658666666666424","768","428","./1_3_Stimuli/C_ambi40.png","他人","Image","他人","Match","f","true","Formal"
"","","","","","psychophysics","184","467335","0.0-9.0-0.0-0.23","613","","f","","","","","","","","","","","","","key","f","16.661142857143258","768","428","./1_3_Stimuli/S_ambi40.png","自我","Image","自我","Match","f","true","Formal"
"","","","","","psychophysics","185","469139","0.0-9.0-0.0-0.24","644","","f","","","","","","","","","","","","","key","f","16.663364485981134","768","428","./1_3_Stimuli/C_ambi40.png","他人","Image","他人","Match","f","true","Formal"
"","","","","","psychophysics","186","471323","0.0-9.0-0.0-0.25","1025","","f","","","","","","","","","","","","","key","f","16.658923076923326","768","428","./1_3_Stimuli/S_ambi40.png","自我","Image","自我","Match","f","true","Formal"
"","","","","","psychophysics","187","473097","0.0-9.0-0.0-0.26","619","","f","","","","","","","","","","","","","key","f","16.658301886792167","768","428","./1_3_Stimuli/S_ambi40.png","自我","Word","自我","Match","f","true","Formal"
"","","","","","psychophysics","188","474886","0.0-9.0-0.0-0.27","624","","j","","","","","","","","","","","","","key","j","16.66396226415099","768","428","./1_3_Stimuli/S_ambi40.png","朋友","Image","自我","Mismatch","j","true","Formal"
"","","","","","psychophysics","189","476832","0.0-9.0-0.0-0.28","792","","j","","","","","","","","","","","","","key","j","16.66103448275856","768","428","./1_3_Stimuli/C_ambi40.png","朋友","Image","他人","Mismatch","j","true","Formal"
"","","","","","psychophysics","190","478751","0.0-9.0-0.0-0.29","759","","j","","","","","","","","","","","","","key","j","16.66087719298268","768","428","./1_3_Stimuli/C_ambi40.png","自我","Word","他人","Mismatch","j","true","Formal"
"","","","","","psychophysics","191","480748","0.0-9.0-0.0-0.30","846","","f","","","","","","","","","","","","","key","f","16.65899159663901","768","428","./1_3_Stimuli/T_ambi40.png","朋友","Image","朋友","Match","f","true","Formal"
"","","","","","psychophysics","192","482716","0.0-9.0-0.0-0.31","797","","j","","","","","","","","","","","","","key","j","16.66102564102536","768","428","./1_3_Stimuli/T_ambi40.png","他人","Word","朋友","Mismatch","j","true","Formal"
"","","","","","psychophysics","193","484875","0.0-9.0-0.0-0.32","928","","f","","","","","","","","","","","","","key","f","16.658449612403118","768","428","./1_3_Stimuli/S_ambi40.png","他人","Word","自我","Mismatch","j","false","Formal"
"","","","","","psychophysics","194","486780","0.0-9.0-0.0-0.33","745","","j","","","","","","","","","","","","","key","j","16.661946902654766","768","428","./1_3_Stimuli/C_ambi40.png","自我","Image","他人","Mismatch","j","true","Formal"
"","","","","","psychophysics","195","489041","0.0-9.0-0.0-0.34","993","","f","","","","","","","","","","","","","key","f","16.660740740740827","768","428","./1_3_Stimuli/S_ambi40.png","朋友","Word","自我","Mismatch","j","false","Formal"
"","","","","","psychophysics","196","490949","0.0-9.0-0.0-0.35","750","","j","","","","","","","","","","","","","key","j","16.663185840707985","768","428","./1_3_Stimuli/C_ambi40.png","朋友","Word","他人","Mismatch","j","true","Formal"
"","","","","","psychophysics","197","493476","0.0-9.0-0.0-0.36","1373","","j","","","","","","","","","","","","","key","j","16.661059602648667","768","428","./1_3_Stimuli/C_ambi40.png","他人","Image","他人","Match","f","false","Formal"
"","","","","","psychophysics","198","495281","0.0-9.0-0.0-0.37","516","","f","","","","","","","","","","","","","key","f","16.6588785046729","768","428","./1_3_Stimuli/S_ambi40.png","自我","Image","自我","Match","f","true","Formal"
"","","","","","psychophysics","199","497382","0.0-9.0-0.0-0.38","946","","f","","","","","","","","","","","","","key","f","16.660959999999964","768","428","./1_3_Stimuli/S_ambi40.png","他人","Image","自我","Mismatch","j","false","Formal"
"","","","","","psychophysics","200","499760","0.0-9.0-0.0-0.39","1219","","j","","","","","","","","","","","","","key","j","16.658028169014102","768","428","./1_3_Stimuli/T_ambi40.png","朋友","Image","朋友","Match","f","false","Formal"
"","","","","","psychophysics","201","501989","0.0-9.0-0.0-0.40","1070","","f","","","","","","","","","","","","","key","f","16.66015037593976","768","428","./1_3_Stimuli/T_ambi40.png","他人","Image","朋友","Mismatch","j","false","Formal"
"","","","","","psychophysics","202","504280","0.0-9.0-0.0-0.41","1019","","j","","","","","","","","","","","","","key","j","16.66132352941178","768","428","./1_3_Stimuli/T_ambi40.png","朋友","Word","朋友","Match","f","false","Formal"
"","","","","","psychophysics","203","506921","0.0-9.0-0.0-0.42","1485","","j","","","","","","","","","","","","","key","j","16.661392405063292","768","428","./1_3_Stimuli/S_ambi40.png","自我","Word","自我","Match","f","false","Formal"
"","","","","","psychophysics","204","508961","0.0-9.0-0.0-0.43","875","","j","","","","","","","","","","","","","key","j","16.660826446281163","768","428","./1_3_Stimuli/T_ambi40.png","自我","Image","朋友","Mismatch","j","true","Formal"
"","","","","","psychophysics","205","511366","0.0-9.0-0.0-0.44","1241","","j","","","","","","","","","","","","","key","j","16.66125000000021","768","428","./1_3_Stimuli/T_ambi40.png","自我","Word","朋友","Mismatch","j","true","Formal"
"","","","","","psychophysics","206","514157","0.0-9.0-0.0-0.45","null","","null","","","","","","","","","","","","","key","null","16.664337349397407","768","428","./1_3_Stimuli/C_ambi40.png","他人","Word","他人","Match","f","false","Formal"
"","","","","","psychophysics","207","515986","0.0-9.0-0.0-0.46","597","","f","","","","","","","","","","","","","key","f","16.665871559633178","768","428","./1_3_Stimuli/C_ambi40.png","他人","Word","他人","Match","f","true","Formal"
"","","","","","psychophysics","208","517865","0.0-9.0-0.0-0.47","656","","f","","","","","","","","","","","","","key","f","16.661071428571763","768","428","./1_3_Stimuli/T_ambi40.png","朋友","Word","朋友","Match","f","true","Formal"
"","","","","","psychophysics","209","520578","0.0-9.0-0.0-0.48","null","","null","","","","","","","","","","","","","key","null","16.661118012422374","768","428","./1_3_Stimuli/T_ambi40.png","朋友","Word","朋友","Match","f","false","Formal"
"","","","","","psychophysics","210","522718","0.0-9.0-0.0-0.49","986","","j","","","","","","","","","","","","","key","j","16.66110236220489","768","428","./1_3_Stimuli/C_ambi40.png","自我","Word","他人","Mismatch","j","true","Formal"
"","","","","","psychophysics","211","524741","0.0-9.0-0.0-0.50","863","","f","","","","","","","","","","","","","key","f","16.659000000000137","768","428","./1_3_Stimuli/C_ambi40.png","他人","Word","他人","Match","f","true","Formal"
"","","","","","psychophysics","212","526948","0.0-9.0-0.0-0.51","1046","","j","","","","","","","","","","","","","key","j","16.66287878787879","768","428","./1_3_Stimuli/S_ambi40.png","自我","Image","自我","Match","f","false","Formal"
"","","","","","psychophysics","213","529339","0.0-9.0-0.0-0.52","1240","","f","","","","","","","","","","","","","key","f","16.662676056337865","768","428","./1_3_Stimuli/S_ambi40.png","自我","Word","自我","Match","f","true","Formal"
"","","","","","psychophysics","214","531373","0.0-9.0-0.0-0.53","880","","j","","","","","","","","","","","","","key","j","16.659008264462734","768","428","./1_3_Stimuli/C_ambi40.png","他人","Word","他人","Match","f","false","Formal"
"","","","","","psychophysics","215","533143","0.0-9.0-0.0-0.54","612","","j","","","","","","","","","","","","","key","j","16.658679245283633","768","428","./1_3_Stimuli/C_ambi40.png","朋友","Image","他人","Mismatch","j","true","Formal"
"","","","","","psychophysics","216","535143","0.0-9.0-0.0-0.55","836","","j","","","","","","","","","","","","","key","j","16.663361344538323","768","428","./1_3_Stimuli/S_ambi40.png","朋友","Image","自我","Mismatch","j","true","Formal"
"","","","","","psychophysics","217","537037","0.0-9.0-0.0-0.56","735","","j","","","","","","","","","","","","","key","j","16.658392857142776","768","428","./1_3_Stimuli/T_ambi40.png","他人","Image","朋友","Mismatch","j","true","Formal"
"","","","","","psychophysics","218","539293","0.0-9.0-0.0-0.57","1011","","f","","","","","","","","","","","","","key","f","16.66103703703697","768","428","./1_3_Stimuli/C_ambi40.png","朋友","Word","他人","Mismatch","j","false","Formal"
"","","","","","psychophysics","219","541441","0.0-9.0-0.0-0.58","984","","j","","","","","","","","","","","","","key","j","16.66125000000011","768","428","./1_3_Stimuli/T_ambi40.png","他人","Word","朋友","Mismatch","j","true","Formal"
"","","","","","psychophysics","220","543409","0.0-9.0-0.0-0.59","804","","f","","","","","","","","","","","","","key","f","16.660854700854262","768","428","./1_3_Stimuli/T_ambi40.png","朋友","Image","朋友","Match","f","true","Formal"
"","","","","","psychophysics","221","545570","0.0-9.0-0.0-0.60","997","","j","","","","","","","","","","","","","key","j","16.663125000000036","768","428","./1_3_Stimuli/T_ambi40.png","朋友","Word","朋友","Match","f","false","Formal"
"","","","","","psychophysics","222","547449","0.0-9.0-0.0-0.61","722","","f","","","","","","","","","","","","","key","f","16.66108108108112","768","428","./1_3_Stimuli/S_ambi40.png","自我","Word","自我","Match","f","true","Formal"
"","","","","","psychophysics","223","549663","0.0-9.0-0.0-0.62","1056","","f","","","","","","","","","","","","","key","f","16.66090909090902","768","428","./1_3_Stimuli/S_ambi40.png","朋友","Word","自我","Mismatch","j","false","Formal"
"","","","","","psychophysics","224","552136","0.0-9.0-0.0-0.63","1221","","j","","","","","","","","","","","","","key","j","16.660945945946388","768","428","./1_3_Stimuli/S_ambi40.png","他人","Word","自我","Mismatch","j","true","Formal"
"","","","","","psychophysics","225","554474","0.0-9.0-0.0-0.64","1174","","f","","","","","","","","","","","","","key","f","16.66115107913602","768","428","./1_3_Stimuli/C_ambi40.png","他人","Image","他人","Match","f","true","Formal"
"","","","","","psychophysics","226","556515","0.0-9.0-0.0-0.65","844","","j","","","","","","","","","","","","","key","j","16.66115702479339","768","428","./1_3_Stimuli/C_ambi40.png","自我","Image","他人","Mismatch","j","true","Formal"
"","","","","","psychophysics","227","558240","0.0-9.0-0.0-0.66","575","","f","","","","","","","","","","","","","key","f","16.66349514563075","768","428","./1_3_Stimuli/S_ambi40.png","自我","Image","自我","Match","f","true","Formal"
"","","","","","psychophysics","228","560312","0.0-9.0-0.0-0.67","916","","j","","","","","","","","","","","","","key","j","16.65902439024341","768","428","./1_3_Stimuli/T_ambi40.png","自我","Word","朋友","Mismatch","j","true","Formal"
"","","","","","psychophysics","229","562383","0.0-9.0-0.0-0.68","915","","j","","","","","","","","","","","","","key","j","16.660967741935185","768","428","./1_3_Stimuli/S_ambi40.png","他人","Image","自我","Mismatch","j","true","Formal"
"","","","","","psychophysics","230","564490","0.0-9.0-0.0-0.69","952","","f","","","","","","","","","","","","","key","f","16.66112000000011","768","428","./1_3_Stimuli/C_ambi40.png","他人","Image","他人","Match","f","true","Formal"
"","","","","","psychophysics","231","566577","0.0-9.0-0.0-0.70","929","","f","","","","","","","","","","","","","key","f","16.660967741935185","768","428","./1_3_Stimuli/T_ambi40.png","朋友","Image","朋友","Match","f","true","Formal"
"","","","","","psychophysics","232","568778","0.0-9.0-0.0-0.71","1044","","j","","","","","","","","","","","","","key","j","16.660610687023183","768","428","./1_3_Stimuli/T_ambi40.png","自我","Image","朋友","Mismatch","j","true","Formal"
"","","","","","psychophysics","233","571484","0.0-9.0-0.0-0.72","null","","null","","","","","","","","","","","","","key","null","16.659506172839304","768","428","./1_3_Stimuli/T_ambi40.png","朋友","Word","朋友","Match","f","false","Formal"
"","","","","","psychophysics","234","573879","0.0-9.0-0.0-0.73","1243","","f","","","","","","","","","","","","","key","f","16.65944055944007","768","428","./1_3_Stimuli/C_ambi40.png","他人","Image","他人","Match","f","true","Formal"
"","","","","","psychophysics","235","576595","0.0-9.0-0.0-0.74","null","","null","","","","","","","","","","","","","key","null","16.662469135802873","768","428","./1_3_Stimuli/T_ambi40.png","自我","Word","朋友","Mismatch","j","false","Formal"
"","","","","","psychophysics","236","578681","0.0-9.0-0.0-0.75","930","","f","","","","","","","","","","","","","key","f","16.65903225806429","768","428","./1_3_Stimuli/S_ambi40.png","自我","Word","自我","Match","f","true","Formal"
"","","","","","psychophysics","237","580380","0.0-9.0-0.0-0.76","542","","f","","","","","","","","","","","","","key","f","16.663564356435828","768","428","./1_3_Stimuli/S_ambi40.png","自我","Word","自我","Match","f","true","Formal"
"","","","","","psychophysics","238","582306","0.0-9.0-0.0-0.77","773","","j","","","","","","","","","","","","","key","j","16.66087719298217","768","428","./1_3_Stimuli/S_ambi40.png","朋友","Word","自我","Mismatch","j","true","Formal"
"","","","","","psychophysics","239","585021","0.0-9.0-0.0-0.78","null","","null","","","","","","","","","","","","","key","null","16.660869565217535","768","428","./1_3_Stimuli/C_ambi40.png","他人","Word","他人","Match","f","false","Formal"
"","","","","","psychophysics","240","587615","0.0-9.0-0.0-0.79","1439","","f","","","","","","","","","","","","","key","f","16.659483870967563","768","428","./1_3_Stimuli/C_ambi40.png","他人","Word","他人","Match","f","true","Formal"
"","","","","","psychophysics","241","589782","0.0-9.0-0.0-0.80","1003","","j","","","","","","","","","","","","","key","j","16.66093023255821","768","428","./1_3_Stimuli/T_ambi40.png","自我","Image","朋友","Mismatch","j","true","Formal"
"","","","","","psychophysics","242","592578","0.0-9.0-0.0-0.81","null","","null","","","","","","","","","","","","","key","null","16.66119760479067","768","428","./1_3_Stimuli/S_ambi40.png","他人","Word","自我","Mismatch","j","false","Formal"
"","","","","","psychophysics","243","594672","0.0-9.0-0.0-0.82","939","","j","","","","","","","","","","","","","key","j","16.660959999999964","768","428","./1_3_Stimuli/T_ambi40.png","他人","Word","朋友","Mismatch","j","true","Formal"
"","","","","","psychophysics","244","597383","0.0-9.0-0.0-0.83","null","","null","","","","","","","","","","","","","key","null","16.661366459627214","768","428","./1_3_Stimuli/S_ambi40.png","自我","Image","自我","Match","f","false","Formal"
"","","","","","psychophysics","245","599362","0.0-9.0-0.0-0.84","717","","f","","","","","","","","","","","","","key","f","16.661186440677138","768","428","./1_3_Stimuli/T_ambi40.png","朋友","Word","朋友","Match","f","true","Formal"
"","","","","","psychophysics","246","602070","0.0-9.0-0.0-0.85","null","","null","","","","","","","","","","","","","key","null","16.661111111110966","768","428","./1_3_Stimuli/C_ambi40.png","朋友","Image","他人","Mismatch","j","false","Formal"
"","","","","","psychophysics","247","603987","0.0-9.0-0.0-0.86","763","","j","","","","","","","","","","","","","key","j","16.656315789473236","768","428","./1_3_Stimuli/S_ambi40.png","自我","Image","自我","Match","f","false","Formal"
"","","","","","psychophysics","248","606325","0.0-9.0-0.0-0.87","1185","","j","","","","","","","","","","","","","key","j","16.661151079136857","768","428","./1_3_Stimuli/C_ambi40.png","朋友","Word","他人","Mismatch","j","true","Formal"
"","","","","","psychophysics","249","608503","0.0-9.0-0.0-0.88","1025","","j","","","","","","","","","","","","","key","j","16.660923076922504","768","428","./1_3_Stimuli/C_ambi40.png","自我","Image","他人","Mismatch","j","true","Formal"
"","","","","","psychophysics","250","611206","0.0-9.0-0.0-0.89","null","","null","","","","","","","","","","","","","key","null","16.66260869565249","768","428","./1_3_Stimuli/T_ambi40.png","朋友","Image","朋友","Match","f","false","Formal"
"","","","","","psychophysics","251","613314","0.0-9.0-0.0-0.90","954","","j","","","","","","","","","","","","","key","j","16.659040000000036","768","428","./1_3_Stimuli/C_ambi40.png","自我","Word","他人","Mismatch","j","true","Formal"
"","","","","","psychophysics","252","615676","0.0-9.0-0.0-0.91","1196","","j","","","","","","","","","","","","","key","j","16.657714285713986","768","428","./1_3_Stimuli/T_ambi40.png","他人","Image","朋友","Mismatch","j","true","Formal"
"","","","","","psychophysics","253","617903","0.0-9.0-0.0-0.92","958","","f","","","","","","","","","","","","","key","f","16.660902255638398","768","428","./1_3_Stimuli/C_ambi40.png","他人","Image","他人","Match","f","true","Formal"
"","","","","","psychophysics","254","620001","0.0-9.0-0.0-0.93","940","","j","","","","","","","","","","","","","key","j","16.65887999999989","768","428","./1_3_Stimuli/S_ambi40.png","他人","Image","自我","Mismatch","j","true","Formal"
"","","","","","psychophysics","255","622217","0.0-9.0-0.0-0.94","1051","","j","","","","","","","","","","","","","key","j","16.661060606060676","768","428","./1_3_Stimuli/T_ambi40.png","朋友","Image","朋友","Match","f","false","Formal"
"","","","","","psychophysics","256","624407","0.0-9.0-0.0-0.95","1036","","f","","","","","","","","","","","","","key","f","16.659076923076423","768","428","./1_3_Stimuli/S_ambi40.png","朋友","Image","自我","Mismatch","j","false","Formal"
"","","","","","psychophysics","257","626335","0.0-9.0-0.0-0.96","776","","j","","","","","","","","","","","","","key","j","16.66069565217375","768","428","./1_3_Stimuli/C_ambi40.png","自我","Image","他人","Mismatch","j","true","Formal"
"","","","","","psychophysics","258","629232","0.0-9.0-0.0-0.97","null","","null","","","","","","","","","","","","","key","null","16.661040462427664","768","428","./1_3_Stimuli/C_ambi40.png","他人","Image","他人","Match","f","false","Formal"
"","","","","","psychophysics","259","631221","0.0-9.0-0.0-0.98","839","","j","","","","","","","","","","","","","key","j","16.66322033898313","768","428","./1_3_Stimuli/S_ambi40.png","他人","Word","自我","Mismatch","j","true","Formal"
"","","","","","psychophysics","260","633301","0.0-9.0-0.0-0.99","930","","j","","","","","","","","","","","","","key","j","16.661451612903377","768","428","./1_3_Stimuli/T_ambi40.png","他人","Word","朋友","Mismatch","j","true","Formal"
"","","","","","psychophysics","261","636009","0.0-9.0-0.0-0.100","null","","null","","","","","","","","","","","","","key","null","16.660864197531208","768","428","./1_3_Stimuli/S_ambi40.png","自我","Image","自我","Match","f","false","Formal"
"","","","","","psychophysics","262","638186","0.0-9.0-0.0-0.101","1023","","f","","","","","","","","","","","","","key","f","16.660775193798376","768","428","./1_3_Stimuli/C_ambi40.png","他人","Word","他人","Match","f","true","Formal"
"","","","","","psychophysics","263","640381","0.0-9.0-0.0-0.102","1031","","j","","","","","","","","","","","","","key","j","16.66091603053492","768","428","./1_3_Stimuli/S_ambi40.png","自我","Word","自我","Match","f","false","Formal"
"","","","","","psychophysics","264","642198","0.0-9.0-0.0-0.103","662","","f","","","","","","","","","","","","","key","f","16.661296296296683","768","428","./1_3_Stimuli/S_ambi40.png","自我","Image","自我","Match","f","true","Formal"
"","","","","","psychophysics","265","644682","0.0-9.0-0.0-0.104","1322","","j","","","","","","","","","","","","","key","j","16.6609459459456","768","428","./1_3_Stimuli/S_ambi40.png","他人","Image","自我","Mismatch","j","true","Formal"
"","","","","","psychophysics","266","647505","0.0-9.0-0.0-0.105","null","","null","","","","","","","","","","","","","key","null","16.660828402366477","768","428","./1_3_Stimuli/T_ambi40.png","朋友","Word","朋友","Match","f","false","Formal"
"","","","","","psychophysics","267","649323","0.0-9.0-0.0-0.106","664","","f","","","","","","","","","","","","","key","f","16.66074074074061","768","428","./1_3_Stimuli/T_ambi40.png","朋友","Image","朋友","Match","f","true","Formal"
"","","","","","psychophysics","268","651024","0.0-9.0-0.0-0.107","543","","j","","","","","","","","","","","","","key","j","16.66376237623684","768","428","./1_3_Stimuli/S_ambi40.png","朋友","Word","自我","Mismatch","j","true","Formal"
"","","","","","psychophysics","269","652978","0.0-9.0-0.0-0.108","801","","j","","","","","","","","","","","","","key","j","16.659137931034163","768","428","./1_3_Stimuli/T_ambi40.png","自我","Word","朋友","Mismatch","j","true","Formal"
"","","","","","psychophysics","270","654848","0.0-9.0-0.0-0.109","713","","f","","","","","","","","","","","","","key","f","16.66162162162112","768","428","./1_3_Stimuli/C_ambi40.png","朋友","Word","他人","Mismatch","j","false","Formal"
"","","","","","psychophysics","271","656612","0.0-9.0-0.0-0.110","606","","j","","","","","","","","","","","","","key","j","16.660761904761948","768","428","./1_3_Stimuli/T_ambi40.png","朋友","Word","朋友","Match","f","false","Formal"
"","","","","","psychophysics","272","658560","0.0-9.0-0.0-0.111","776","","j","","","","","","","","","","","","","key","j","16.658965517241903","768","428","./1_3_Stimuli/T_ambi40.png","自我","Image","朋友","Mismatch","j","true","Formal"
"","","","","","psychophysics","273","661262","0.0-9.0-0.0-0.112","null","","null","","","","","","","","","","","","","key","null","16.660621118012337","768","428","./1_3_Stimuli/T_ambi40.png","他人","Image","朋友","Mismatch","j","false","Formal"
"","","","","","psychophysics","274","663286","0.0-9.0-0.0-0.113","858","","j","","","","","","","","","","","","","key","j","16.65867768595099","768","428","./1_3_Stimuli/C_ambi40.png","他人","Word","他人","Match","f","false","Formal"
"","","","","","psychophysics","275","665158","0.0-9.0-0.0-0.114","715","","f","","","","","","","","","","","","","key","f","16.661261261261473","768","428","./1_3_Stimuli/C_ambi40.png","他人","Image","他人","Match","f","true","Formal"
"","","","","","psychophysics","276","667005","0.0-9.0-0.0-0.115","695","","j","","","","","","","","","","","","","key","j","16.65890909090892","768","428","./1_3_Stimuli/C_ambi40.png","朋友","Image","他人","Mismatch","j","true","Formal"
"","","","","","psychophysics","277","669715","0.0-9.0-0.0-0.116","null","","null","","","","","","","","","","","","","key","null","16.661481481480966","768","428","./1_3_Stimuli/C_ambi40.png","自我","Word","他人","Mismatch","j","false","Formal"
"","","","","","psychophysics","278","672037","0.0-9.0-0.0-0.117","1169","","f","","","","","","","","","","","","","key","f","16.66304347826087","768","428","./1_3_Stimuli/T_ambi40.png","朋友","Image","朋友","Match","f","true","Formal"
"","","","","","psychophysics","279","674316","0.0-9.0-0.0-0.118","1123","","f","","","","","","","","","","","","","key","f","16.659117647058928","768","428","./1_3_Stimuli/S_ambi40.png","自我","Word","自我","Match","f","true","Formal"
"","","","","","psychophysics","280","676314","0.0-9.0-0.0-0.119","839","","j","","","","","","","","","","","","","key","j","16.660840336134573","768","428","./1_3_Stimuli/S_ambi40.png","朋友","Image","自我","Mismatch","j","true","Formal"
"","","","","","html-keyboard-response","281","679345","0.0-9.0-1.0","3030","<style>.context{color:white; font-size: 35px; line-height:40px}</style>                        <div><p class='context'>您正确回答了69% 的试次。</p><p class='context'>您的平均反应时为866毫秒。</p><p> <div style = 'color: green'><按任意键进入休息></div></p>"," ","","","","","","","","","","","","","","","","","","","","","","","","",""
"","","","","","html-button-response","282","685862","0.0-9.0-2.0","6516","
                  <p>您当前还剩余5组实验</p>
                  <p>现在是休息时间，当您结束休息后，您可以点击 结束休息 按钮 继续</p>
                  <p>建议休息时间还剩余<span id=""iii"">60</span>秒</p>","0","","","","","","","","","","","","","","","","","","","","","","","","",""
"","","","","","psychophysics","283","688505","0.0-9.0-0.1-0.120","1488","","f","","","","","","","","","","","","","key","f","16.661146496815583","768","428","./1_3_Stimuli/S_ambi40.png","自我","Word","自我","Match","f","true","Formal"
"","","","","","psychophysics","284","690641","0.0-9.0-0.1-0.121","970","","j","","","","","","","","","","","","","key","j","16.661574803149755","768","428","./1_3_Stimuli/C_ambi40.png","自我","Word","他人","Mismatch","j","true","Formal"
"","","","","","psychophysics","285","693079","0.0-9.0-0.1-0.122","1282","","f","","","","","","","","","","","","","key","f","16.662758620689495","768","428","./1_3_Stimuli/S_ambi40.png","他人","Image","自我","Mismatch","j","false","Formal"
"","","","","","psychophysics","286","695189","0.0-9.0-0.1-0.123","948","","j","","","","","","","","","","","","","key","j","16.663015873016167","768","428","./1_3_Stimuli/C_ambi40.png","自我","Image","他人","Mismatch","j","true","Formal"
"","","","","","psychophysics","287","697516","0.0-9.0-0.1-0.124","1170","","f","","","","","","","","","","","","","key","f","16.660869565217897","768","428","./1_3_Stimuli/S_ambi40.png","自我","Image","自我","Match","f","true","Formal"
"","","","","","psychophysics","288","699516","0.0-9.0-0.1-0.125","842","","j","","","","","","","","","","","","","key","j","16.66285714285718","768","428","./1_3_Stimuli/C_ambi40.png","他人","Word","他人","Match","f","false","Formal"
"","","","","","psychophysics","289","701831","0.0-9.0-0.1-0.126","1150","","f","","","","","","","","","","","","","key","f","16.66144927536252","768","428","./1_3_Stimuli/T_ambi40.png","自我","Word","朋友","Mismatch","j","false","Formal"
"","","","","","psychophysics","290","703670","0.0-9.0-0.1-0.127","626","","f","","","","","","","","","","","","","key","f","16.661090909090657","768","428","./1_3_Stimuli/S_ambi40.png","自我","Image","自我","Match","f","true","Formal"
"","","","","","psychophysics","291","705879","0.0-9.0-0.1-0.128","1044","","j","","","","","","","","","","","","","key","j","16.66290076335853","768","428","./1_3_Stimuli/C_ambi40.png","朋友","Word","他人","Mismatch","j","true","Formal"
"","","","","","psychophysics","292","707736","0.0-9.0-0.1-0.129","650","","f","","","","","","","","","","","","","key","f","16.665765765765975","768","428","./1_3_Stimuli/C_ambi40.png","他人","Image","他人","Match","f","true","Formal"
"","","","","","psychophysics","293","709487","0.0-9.0-0.1-0.130","596","","j","","","","","","","","","","","","","key","j","16.66096153846257","768","428","./1_3_Stimuli/T_ambi40.png","朋友","Image","朋友","Match","f","false","Formal"
"","","","","","psychophysics","294","711474","0.0-9.0-0.1-0.131","833","","f","","","","","","","","","","","","","key","f","16.661355932203705","768","428","./1_3_Stimuli/T_ambi40.png","他人","Word","朋友","Mismatch","j","false","Formal"
"","","","","","psychophysics","295","713539","0.0-9.0-0.1-0.132","902","","j","","","","","","","","","","","","","key","j","16.65869918699202","768","428","./1_3_Stimuli/S_ambi40.png","朋友","Word","自我","Mismatch","j","true","Formal"
"","","","","","psychophysics","296","715510","0.0-9.0-0.1-0.133","817","","f","","","","","","","","","","","","","key","f","16.65897435897416","768","428","./1_3_Stimuli/S_ambi40.png","自我","Word","自我","Match","f","true","Formal"
"","","","","","psychophysics","297","717403","0.0-9.0-0.1-0.134","735","","f","","","","","","","","","","","","","key","f","16.65858407079683","768","428","./1_3_Stimuli/T_ambi40.png","朋友","Word","朋友","Match","f","true","Formal"
"","","","","","psychophysics","298","720237","0.0-9.0-0.1-0.135","null","","null","","","","","","","","","","","","","key","null","16.661183431952608","768","428","./1_3_Stimuli/C_ambi40.png","朋友","Image","他人","Mismatch","j","false","Formal"
"","","","","","psychophysics","299","722742","0.0-9.0-0.1-0.136","1322","","f","","","","","","","","","","","","","key","f","16.6612080536914","768","428","./1_3_Stimuli/C_ambi40.png","他人","Word","他人","Match","f","true","Formal"
"","","","","","psychophysics","300","724790","0.0-9.0-0.1-0.137","891","","j","","","","","","","","","","","","","key","j","16.66314049586769","768","428","./1_3_Stimuli/S_ambi40.png","朋友","Image","自我","Mismatch","j","true","Formal"
"","","","","","psychophysics","301","727450","0.0-9.0-0.1-0.138","1504","","j","","","","","","","","","","","","","key","j","16.660880503145123","768","428","./1_3_Stimuli/T_ambi40.png","自我","Image","朋友","Mismatch","j","true","Formal"
"","","","","","psychophysics","302","729455","0.0-9.0-0.1-0.139","846","","f","","","","","","","","","","","","","key","f","16.660840336134573","768","428","./1_3_Stimuli/C_ambi40.png","他人","Image","他人","Match","f","true","Formal"
"","","","","","psychophysics","303","731326","0.0-9.0-0.1-0.140","693","","f","","","","","","","","","","","","","key","f","16.66124999999946","768","428","./1_3_Stimuli/T_ambi40.png","朋友","Word","朋友","Match","f","true","Formal"
"","","","","","psychophysics","304","733596","0.0-9.0-0.1-0.141","1104","","j","","","","","","","","","","","","","key","j","16.658962962962686","768","428","./1_3_Stimuli/T_ambi40.png","朋友","Image","朋友","Match","f","false","Formal"
"","","","","","psychophysics","305","736301","0.0-9.0-0.1-0.142","1552","","f","","","","","","","","","","","","","key","f","16.660993788819415","768","428","./1_3_Stimuli/S_ambi40.png","他人","Word","自我","Mismatch","j","false","Formal"
"","","","","","psychophysics","306","738360","0.0-9.0-0.1-0.143","807","","j","","","","","","","","","","","","","key","j","16.661138211382642","768","428","./1_3_Stimuli/T_ambi40.png","他人","Image","朋友","Mismatch","j","true","Formal"
"","","","","","psychophysics","307","740741","0.0-9.0-0.1-0.144","1173","","j","","","","","","","","","","","","","key","j","16.66281690140842","768","428","./1_3_Stimuli/C_ambi40.png","自我","Word","他人","Mismatch","j","true","Formal"
"","","","","","psychophysics","308","743614","0.0-9.0-0.1-0.145","null","","null","","","","","","","","","","","","","key","null","16.66093567251473","768","428","./1_3_Stimuli/S_ambi40.png","自我","Image","自我","Match","f","false","Formal"
"","","","","","psychophysics","309","745799","0.0-9.0-0.1-0.146","1021","","j","","","","","","","","","","","","","key","j","16.66123076923048","768","428","./1_3_Stimuli/T_ambi40.png","朋友","Word","朋友","Match","f","false","Formal"
"","","","","","psychophysics","310","747899","0.0-9.0-0.1-0.147","938","","f","","","","","","","","","","","","","key","f","16.660959999999964","768","428","./1_3_Stimuli/C_ambi40.png","他人","Image","他人","Match","f","true","Formal"
"","","","","","psychophysics","311","750121","0.0-9.0-0.1-0.148","1061","","j","","","","","","","","","","","","","key","j","16.661052631578386","768","428","./1_3_Stimuli/S_ambi40.png","朋友","Image","自我","Mismatch","j","true","Formal"
"","","","","","psychophysics","312","752828","0.0-9.0-0.1-0.149","null","","null","","","","","","","","","","","","","key","null","16.66260869565249","768","428","./1_3_Stimuli/T_ambi40.png","自我","Word","朋友","Mismatch","j","false","Formal"
"","","","","","psychophysics","313","754808","0.0-9.0-0.1-0.150","812","","j","","","","","","","","","","","","","key","j","16.661016949152543","768","428","./1_3_Stimuli/S_ambi40.png","他人","Image","自我","Mismatch","j","true","Formal"
"","","","","","psychophysics","314","756705","0.0-9.0-0.1-0.151","743","","f","","","","","","","","","","","","","key","f","16.661415929203457","768","428","./1_3_Stimuli/S_ambi40.png","他人","Word","自我","Mismatch","j","false","Formal"
"","","","","","psychophysics","315","758926","0.0-9.0-0.1-0.152","1059","","f","","","","","","","","","","","","","key","f","16.66060606060571","768","428","./1_3_Stimuli/C_ambi40.png","他人","Word","他人","Match","f","true","Formal"
"","","","","","psychophysics","316","761338","0.0-9.0-0.1-0.153","1248","","f","","","","","","","","","","","","","key","f","16.661388888888823","768","428","./1_3_Stimuli/T_ambi40.png","他人","Image","朋友","Mismatch","j","false","Formal"
"","","","","","psychophysics","317","763730","0.0-9.0-0.1-0.154","1233","","j","","","","","","","","","","","","","key","j","16.66097902097834","768","428","./1_3_Stimuli/T_ambi40.png","朋友","Image","朋友","Match","f","false","Formal"
"","","","","","psychophysics","318","765882","0.0-9.0-0.1-0.155","987","","f","","","","","","","","","","","","","key","f","16.660625000000437","768","428","./1_3_Stimuli/S_ambi40.png","朋友","Word","自我","Mismatch","j","false","Formal"
"","","","","","psychophysics","319","768584","0.0-9.0-0.1-0.156","null","","null","","","","","","","","","","","","","key","null","16.660993788820136","768","428","./1_3_Stimuli/S_ambi40.png","自我","Word","自我","Match","f","false","Formal"
"","","","","","psychophysics","320","770656","0.0-9.0-0.1-0.157","915","","j","","","","","","","","","","","","","key","j","16.661300813007866","768","428","./1_3_Stimuli/T_ambi40.png","自我","Image","朋友","Mismatch","j","true","Formal"
"","","","","","psychophysics","321","773135","0.0-9.0-0.1-0.158","1321","","f","","","","","","","","","","","","","key","f","16.658918918919046","768","428","./1_3_Stimuli/T_ambi40.png","朋友","Word","朋友","Match","f","true","Formal"
"","","","","","psychophysics","322","775218","0.0-9.0-0.1-0.159","850","","f","","","","","","","","","","","","","key","f","16.66322580645154","768","428","./1_3_Stimuli/C_ambi40.png","他人","Word","他人","Match","f","true","Formal"
"","","","","","psychophysics","323","777221","0.0-9.0-0.1-0.160","836","","f","","","","","","","","","","","","","key","f","16.6631932773103","768","428","./1_3_Stimuli/S_ambi40.png","自我","Image","自我","Match","f","true","Formal"
"","","","","","psychophysics","324","779626","0.0-9.0-0.1-0.161","1225","","f","","","","","","","","","","","","","key","f","16.66277777777739","768","428","./1_3_Stimuli/C_ambi40.png","朋友","Image","他人","Mismatch","j","false","Formal"
"","","","","","psychophysics","325","781911","0.0-9.0-0.1-0.162","1119","","j","","","","","","","","","","","","","key","j","16.66323529411816","768","428","./1_3_Stimuli/C_ambi40.png","自我","Image","他人","Mismatch","j","true","Formal"
"","","","","","psychophysics","326","784086","0.0-9.0-0.1-0.163","1020","","f","","","","","","","","","","","","","key","f","16.662945736434253","768","428","./1_3_Stimuli/T_ambi40.png","朋友","Image","朋友","Match","f","true","Formal"
"","","","","","psychophysics","327","786794","0.0-9.0-0.1-0.164","null","","null","","","","","","","","","","","","","key","null","16.659259259259546","768","428","./1_3_Stimuli/T_ambi40.png","他人","Word","朋友","Mismatch","j","false","Formal"
"","","","","","psychophysics","328","789235","0.0-9.0-0.1-0.165","1288","","j","","","","","","","","","","","","","key","j","16.660965517241156","768","428","./1_3_Stimuli/C_ambi40.png","他人","Image","他人","Match","f","false","Formal"
"","","","","","psychophysics","329","791462","0.0-9.0-0.1-0.166","953","","f","","","","","","","","","","","","","key","f","16.659097744361148","768","428","./1_3_Stimuli/S_ambi40.png","自我","Word","自我","Match","f","true","Formal"
"","","","","","psychophysics","330","793385","0.0-9.0-0.1-0.167","769","","j","","","","","","","","","","","","","key","j","16.661052631579846","768","428","./1_3_Stimuli/C_ambi40.png","朋友","Word","他人","Mismatch","j","true","Formal"
"","","","","","psychophysics","331","795500","0.0-9.0-0.1-0.168","884","","j","","","","","","","","","","","","","key","j","16.658730158730158","768","428","./1_3_Stimuli/T_ambi40.png","自我","Image","朋友","Mismatch","j","true","Formal"
"","","","","","psychophysics","332","797420","0.0-9.0-0.1-0.169","765","","f","","","","","","","","","","","","","key","f","16.66173913043458","768","428","./1_3_Stimuli/S_ambi40.png","他人","Image","自我","Mismatch","j","false","Formal"
"","","","","","psychophysics","333","799233","0.0-9.0-0.1-0.170","564","","f","","","","","","","","","","","","","key","f","16.66056074766403","768","428","./1_3_Stimuli/S_ambi40.png","自我","Word","自我","Match","f","true","Formal"
"","","","","","psychophysics","334","801100","0.0-9.0-0.1-0.171","713","","j","","","","","","","","","","","","","key","j","16.658018018018353","768","428","./1_3_Stimuli/S_ambi40.png","朋友","Image","自我","Mismatch","j","true","Formal"
"","","","","","psychophysics","335","803804","0.0-9.0-0.1-0.172","null","","null","","","","","","","","","","","","","key","null","16.661118012422737","768","428","./1_3_Stimuli/T_ambi40.png","他人","Word","朋友","Mismatch","j","false","Formal"
"","","","","","psychophysics","336","806084","0.0-9.0-0.1-0.173","1114","","f","","","","","","","","","","","","","key","f","16.66308823529364","768","428","./1_3_Stimuli/T_ambi40.png","朋友","Image","朋友","Match","f","true","Formal"
"","","","","","psychophysics","337","807988","0.0-9.0-0.1-0.174","678","","f","","","","","","","","","","","","","key","f","16.66053097345145","768","428","./1_3_Stimuli/S_ambi40.png","自我","Image","自我","Match","f","true","Formal"
"","","","","","psychophysics","338","810577","0.0-9.0-0.1-0.175","1431","","f","","","","","","","","","","","","","key","f","16.6598701298701","768","428","./1_3_Stimuli/T_ambi40.png","朋友","Word","朋友","Match","f","true","Formal"
"","","","","","psychophysics","339","812556","0.0-9.0-0.1-0.176","688","","f","","","","","","","","","","","","","key","f","16.663050847457548","768","428","./1_3_Stimuli/S_ambi40.png","自我","Word","自我","Match","f","true","Formal"
"","","","","","psychophysics","340","814405","0.0-9.0-0.1-0.177","697","","f","","","","","","","","","","","","","key","f","16.658727272727994","768","428","./1_3_Stimuli/C_ambi40.png","他人","Word","他人","Match","f","true","Formal"
"","","","","","psychophysics","341","816260","0.0-9.0-0.1-0.178","691","","f","","","","","","","","","","","","","key","f","16.660909090909726","768","428","./1_3_Stimuli/S_ambi40.png","朋友","Word","自我","Mismatch","j","false","Formal"
"","","","","","psychophysics","342","818341","0.0-9.0-0.1-0.179","931","","j","","","","","","","","","","","","","key","j","16.661129032258852","768","428","./1_3_Stimuli/T_ambi40.png","自我","Word","朋友","Mismatch","j","true","Formal"
"","","","","","psychophysics","343","820514","0.0-9.0-0.1-0.180","1008","","f","","","","","","","","","","","","","key","f","16.66138461538537","768","428","./1_3_Stimuli/C_ambi40.png","他人","Image","他人","Match","f","true","Formal"
"","","","","","psychophysics","344","823217","0.0-9.0-0.1-0.181","null","","null","","","","","","","","","","","","","key","null","16.660993788820136","768","428","./1_3_Stimuli/T_ambi40.png","朋友","Word","朋友","Match","f","false","Formal"
"","","","","","psychophysics","345","825540","0.0-9.0-0.1-0.182","1157","","f","","","","","","","","","","","","","key","f","16.660869565217055","768","428","./1_3_Stimuli/C_ambi40.png","他人","Word","他人","Match","f","true","Formal"
"","","","","","psychophysics","346","827280","0.0-9.0-0.1-0.183","575","","f","","","","","","","","","","","","","key","f","16.658653846153847","768","428","./1_3_Stimuli/T_ambi40.png","朋友","Image","朋友","Match","f","true","Formal"
"","","","","","psychophysics","347","829437","0.0-9.0-0.1-0.184","1004","","f","","","","","","","","","","","","","key","f","16.661093750000873","768","428","./1_3_Stimuli/C_ambi40.png","自我","Word","他人","Mismatch","j","false","Formal"
"","","","","","psychophysics","348","831468","0.0-9.0-0.1-0.185","733","","j","","","","","","","","","","","","","key","j","16.660991735537035","768","428","./1_3_Stimuli/T_ambi40.png","他人","Image","朋友","Mismatch","j","true","Formal"
"","","","","","psychophysics","349","833269","0.0-9.0-0.1-0.186","510","","f","","","","","","","","","","","","","key","f","16.66168224299","768","428","./1_3_Stimuli/C_ambi40.png","他人","Image","他人","Match","f","true","Formal"
"","","","","","psychophysics","350","835245","0.0-9.0-0.1-0.187","813","","j","","","","","","","","","","","","","key","j","16.663898305085457","768","428","./1_3_Stimuli/C_ambi40.png","朋友","Word","他人","Mismatch","j","true","Formal"
"","","","","","psychophysics","351","837235","0.0-9.0-0.1-0.188","826","","j","","","","","","","","","","","","","key","j","16.661016949152543","768","428","./1_3_Stimuli/C_ambi40.png","朋友","Image","他人","Mismatch","j","true","Formal"
"","","","","","psychophysics","352","839170","0.0-9.0-0.1-0.189","780","","j","","","","","","","","","","","","","key","j","16.660869565217393","768","428","./1_3_Stimuli/C_ambi40.png","自我","Image","他人","Mismatch","j","true","Formal"
"","","","","","psychophysics","353","841150","0.0-9.0-0.1-0.190","829","","f","","","","","","","","","","","","","key","f","16.661186440678122","768","428","./1_3_Stimuli/S_ambi40.png","他人","Word","自我","Mismatch","j","false","Formal"
"","","","","","psychophysics","354","843454","0.0-9.0-0.1-0.191","1151","","f","","","","","","","","","","","","","key","f","16.660869565217897","768","428","./1_3_Stimuli/S_ambi40.png","自我","Image","自我","Match","f","true","Formal"
"","","","","","psychophysics","355","845347","0.0-9.0-0.1-0.192","736","","j","","","","","","","","","","","","","key","j","16.660892857143022","768","428","./1_3_Stimuli/S_ambi40.png","他人","Image","自我","Mismatch","j","true","Formal"
"","","","","","psychophysics","356","847745","0.0-9.0-0.1-0.193","1246","","j","","","","","","","","","","","","","key","j","16.66111888111914","768","428","./1_3_Stimuli/C_ambi40.png","他人","Word","他人","Match","f","false","Formal"
"","","","","","psychophysics","357","849566","0.0-9.0-0.1-0.194","634","","j","","","","","","","","","","","","","key","j","16.66277777777847","768","428","./1_3_Stimuli/C_ambi40.png","自我","Word","他人","Mismatch","j","true","Formal"
"","","","","","psychophysics","358","851505","0.0-9.0-0.1-0.195","780","","j","","","","","","","","","","","","","key","j","16.661379310344586","768","428","./1_3_Stimuli/S_ambi40.png","朋友","Image","自我","Mismatch","j","true","Formal"
"","","","","","psychophysics","359","853373","0.0-9.0-0.1-0.196","704","","j","","","","","","","","","","","","","key","j","16.660900900900774","768","428","./1_3_Stimuli/C_ambi40.png","朋友","Word","他人","Mismatch","j","true","Formal"
"","","","","","psychophysics","360","855192","0.0-9.0-0.1-0.197","667","","f","","","","","","","","","","","","","key","f","16.65814814814776","768","428","./1_3_Stimuli/S_ambi40.png","自我","Word","自我","Match","f","true","Formal"
"","","","","","psychophysics","361","857294","0.0-9.0-0.1-0.198","947","","j","","","","","","","","","","","","","key","j","16.66112000000011","768","428","./1_3_Stimuli/C_ambi40.png","朋友","Image","他人","Mismatch","j","true","Formal"
"","","","","","psychophysics","362","859188","0.0-9.0-0.1-0.199","610","","j","","","","","","","","","","","","","key","j","16.661061946902244","768","428","./1_3_Stimuli/T_ambi40.png","他人","Image","朋友","Mismatch","j","true","Formal"
"","","","","","psychophysics","363","861425","0.0-9.0-0.1-0.200","1083","","j","","","","","","","","","","","","","key","j","16.660601503759292","768","428","./1_3_Stimuli/C_ambi40.png","他人","Image","他人","Match","f","false","Formal"
"","","","","","psychophysics","364","863703","0.0-9.0-0.1-0.201","1097","","f","","","","","","","","","","","","","key","f","16.661029411764876","768","428","./1_3_Stimuli/T_ambi40.png","朋友","Image","朋友","Match","f","true","Formal"
"","","","","","psychophysics","365","865792","0.0-9.0-0.1-0.202","938","","f","","","","","","","","","","","","","key","f","16.66322580645154","768","428","./1_3_Stimuli/T_ambi40.png","朋友","Image","朋友","Match","f","true","Formal"
"","","","","","psychophysics","366","867834","0.0-9.0-0.1-0.203","890","","j","","","","","","","","","","","","","key","j","16.66098360655749","768","428","./1_3_Stimuli/S_ambi40.png","朋友","Word","自我","Mismatch","j","true","Formal"
"","","","","","psychophysics","367","870140","0.0-9.0-0.1-0.204","1151","","j","","","","","","","","","","","","","key","j","16.661021897810627","768","428","./1_3_Stimuli/C_ambi40.png","自我","Image","他人","Mismatch","j","true","Formal"
"","","","","","psychophysics","368","872032","0.0-9.0-0.1-0.205","735","","f","","","","","","","","","","","","","key","f","16.661415929203457","768","428","./1_3_Stimuli/T_ambi40.png","朋友","Word","朋友","Match","f","true","Formal"
"","","","","","psychophysics","369","874001","0.0-9.0-0.1-0.206","686","","j","","","","","","","","","","","","","key","j","16.663247863247665","768","428","./1_3_Stimuli/S_ambi40.png","自我","Image","自我","Match","f","false","Formal"
"","","","","","psychophysics","370","876118","0.0-9.0-0.1-0.207","957","","f","","","","","","","","","","","","","key","f","16.663333333333","768","428","./1_3_Stimuli/T_ambi40.png","自我","Word","朋友","Mismatch","j","false","Formal"
"","","","","","psychophysics","371","878062","0.0-9.0-0.1-0.208","702","","f","","","","","","","","","","","","","key","f","16.660689655172533","768","428","./1_3_Stimuli/S_ambi40.png","自我","Word","自我","Match","f","true","Formal"
"","","","","","psychophysics","372","879928","0.0-9.0-0.1-0.209","712","","j","","","","","","","","","","","","","key","j","16.66162162162112","768","428","./1_3_Stimuli/T_ambi40.png","他人","Word","朋友","Mismatch","j","true","Formal"
"","","","","","psychophysics","373","881792","0.0-9.0-0.1-0.210","705","","f","","","","","","","","","","","","","key","f","16.658558558558347","768","428","./1_3_Stimuli/S_ambi40.png","自我","Image","自我","Match","f","true","Formal"
"","","","","","psychophysics","374","883748","0.0-9.0-0.1-0.211","796","","j","","","","","","","","","","","","","key","j","16.66310344827522","768","428","./1_3_Stimuli/C_ambi40.png","他人","Image","他人","Match","f","false","Formal"
"","","","","","psychophysics","375","885632","0.0-9.0-0.1-0.212","656","","j","","","","","","","","","","","","","key","j","16.663214285714535","768","428","./1_3_Stimuli/T_ambi40.png","自我","Image","朋友","Mismatch","j","true","Formal"
"","","","","","psychophysics","376","888458","0.0-9.0-0.1-0.213","null","","null","","","","","","","","","","","","","key","null","16.662721893491124","768","428","./1_3_Stimuli/S_ambi40.png","他人","Word","自我","Mismatch","j","false","Formal"
"","","","","","psychophysics","377","890624","0.0-9.0-0.1-0.214","1001","","j","","","","","","","","","","","","","key","j","16.66077519379928","768","428","./1_3_Stimuli/C_ambi40.png","他人","Word","他人","Match","f","false","Formal"
"","","","","","psychophysics","378","892569","0.0-9.0-0.1-0.215","784","","f","","","","","","","","","","","","","key","f","16.661043478261032","768","428","./1_3_Stimuli/T_ambi40.png","朋友","Word","朋友","Match","f","true","Formal"
"","","","","","psychophysics","379","895278","0.0-9.0-0.1-0.216","null","","null","","","","","","","","","","","","","key","null","16.662962962963107","768","428","./1_3_Stimuli/T_ambi40.png","朋友","Image","朋友","Match","f","false","Formal"
"","","","","","psychophysics","380","897211","0.0-9.0-0.1-0.217","665","","j","","","","","","","","","","","","","key","j","16.663304347825317","768","428","./1_3_Stimuli/T_ambi40.png","他人","Image","朋友","Mismatch","j","true","Formal"
"","","","","","psychophysics","381","899123","0.0-9.0-0.1-0.218","757","","j","","","","","","","","","","","","","key","j","16.66122807017548","768","428","./1_3_Stimuli/S_ambi40.png","他人","Image","自我","Mismatch","j","true","Formal"
"","","","","","psychophysics","382","901425","0.0-9.0-0.1-0.219","1052","","j","","","","","","","","","","","","","key","j","16.660729927006585","768","428","./1_3_Stimuli/S_ambi40.png","朋友","Image","自我","Mismatch","j","true","Formal"
"","","","","","psychophysics","383","904136","0.0-9.0-0.1-0.220","null","","null","","","","","","","","","","","","","key","null","16.66098765432145","768","428","./1_3_Stimuli/C_ambi40.png","他人","Image","他人","Match","f","false","Formal"
"","","","","","psychophysics","384","906024","0.0-9.0-0.1-0.221","608","","f","","","","","","","","","","","","","key","f","16.660892857143022","768","428","./1_3_Stimuli/T_ambi40.png","朋友","Word","朋友","Match","f","true","Formal"
"","","","","","psychophysics","385","907792","0.0-9.0-0.1-0.222","616","","j","","","","","","","","","","","","","key","j","16.661333333332802","768","428","./1_3_Stimuli/C_ambi40.png","朋友","Image","他人","Mismatch","j","true","Formal"
"","","","","","psychophysics","386","909506","0.0-9.0-0.1-0.223","556","","j","","","","","","","","","","","","","key","j","16.661176470588828","768","428","./1_3_Stimuli/C_ambi40.png","朋友","Word","他人","Mismatch","j","true","Formal"
"","","","","","psychophysics","387","911340","0.0-9.0-0.1-0.224","676","","j","","","","","","","","","","","","","key","j","16.658165137614592","768","428","./1_3_Stimuli/C_ambi40.png","自我","Word","他人","Mismatch","j","true","Formal"
"","","","","","psychophysics","388","914054","0.0-9.0-0.1-0.225","null","","null","","","","","","","","","","","","","key","null","16.659753086419784","768","428","./1_3_Stimuli/C_ambi40.png","他人","Image","他人","Match","f","false","Formal"
"","","","","","psychophysics","389","916255","0.0-9.0-0.1-0.226","1048","","f","","","","","","","","","","","","","key","f","16.6590839694654","768","428","./1_3_Stimuli/C_ambi40.png","他人","Word","他人","Match","f","true","Formal"
"","","","","","psychophysics","390","918004","0.0-9.0-0.1-0.227","445","","j","","","","","","","","","","","","","key","j","16.66346153846154","768","428","./1_3_Stimuli/T_ambi40.png","他人","Word","朋友","Mismatch","j","true","Formal"
"","","","","","psychophysics","391","920707","0.0-9.0-0.1-0.228","null","","null","","","","","","","","","","","","","key","null","16.662484472049893","768","428","./1_3_Stimuli/C_ambi40.png","自我","Image","他人","Mismatch","j","false","Formal"
"","","","","","psychophysics","392","922519","0.0-9.0-0.1-0.229","656","","f","","","","","","","","","","","","","key","f","16.66092592592597","768","428","./1_3_Stimuli/T_ambi40.png","朋友","Image","朋友","Match","f","true","Formal"
"","","","","","psychophysics","393","924569","0.0-9.0-0.1-0.230","791","","j","","","","","","","","","","","","","key","j","16.66098360655749","768","428","./1_3_Stimuli/S_ambi40.png","他人","Word","自我","Mismatch","j","true","Formal"
"","","","","","psychophysics","394","926318","0.0-9.0-0.1-0.231","590","","j","","","","","","","","","","","","","key","j","16.658269230768873","768","428","./1_3_Stimuli/T_ambi40.png","自我","Word","朋友","Mismatch","j","true","Formal"
"","","","","","psychophysics","395","928180","0.0-9.0-0.1-0.232","703","","f","","","","","","","","","","","","","key","f","16.66126126126042","768","428","./1_3_Stimuli/T_ambi40.png","朋友","Word","朋友","Match","f","true","Formal"
"","","","","","psychophysics","396","930146","0.0-9.0-0.1-0.233","806","","j","","","","","","","","","","","","","key","j","16.66102564102536","768","428","./1_3_Stimuli/T_ambi40.png","自我","Image","朋友","Mismatch","j","true","Formal"
"","","","","","psychophysics","397","932286","0.0-9.0-0.1-0.234","981","","j","","","","","","","","","","","","","key","j","16.65889763779568","768","428","./1_3_Stimuli/C_ambi40.png","他人","Word","他人","Match","f","false","Formal"
"","","","","","psychophysics","398","934483","0.0-9.0-0.1-0.235","1037","","j","","","","","","","","","","","","","key","j","16.661221374045766","768","428","./1_3_Stimuli/S_ambi40.png","朋友","Word","自我","Mismatch","j","true","Formal"
"","","","","","psychophysics","399","937106","0.0-9.0-0.1-0.236","1471","","f","","","","","","","","","","","","","key","f","16.662802547771058","768","428","./1_3_Stimuli/S_ambi40.png","自我","Word","自我","Match","f","true","Formal"
"","","","","","psychophysics","400","938848","0.0-9.0-0.1-0.237","580","","f","","","","","","","","","","","","","key","f","16.658640776698714","768","428","./1_3_Stimuli/S_ambi40.png","自我","Image","自我","Match","f","true","Formal"
"","","","","","psychophysics","401","941558","0.0-9.0-0.1-0.238","null","","null","","","","","","","","","","","","","key","null","16.661358024691445","768","428","./1_3_Stimuli/S_ambi40.png","自我","Image","自我","Match","f","false","Formal"
"","","","","","psychophysics","402","943377","0.0-9.0-0.1-0.239","668","","f","","","","","","","","","","","","","key","f","16.65611111111206","768","428","./1_3_Stimuli/S_ambi40.png","自我","Word","自我","Match","f","true","Formal"
"","","","","","html-keyboard-response","403","946081","0.0-9.0-1.1","2702","<style>.context{color:white; font-size: 35px; line-height:40px}</style>                        <div><p class='context'>您正确回答了68% 的试次。</p><p class='context'>您的平均反应时为862毫秒。</p><p> <div style = 'color: green'><按任意键进入休息></div></p>"," ","","","","","","","","","","","","","","","","","","","","","","","","",""
"","","","","","html-button-response","404","956572","0.0-9.0-2.1","10490","
                  <p>您当前还剩余4组实验</p>
                  <p>现在是休息时间，当您结束休息后，您可以点击 结束休息 按钮 继续</p>
                  <p>建议休息时间还剩余<span id=""iii"">60</span>秒</p>","0","","","","","","","","","","","","","","","","","","","","","","","","",""
"","","","","","psychophysics","405","958506","0.0-9.0-0.2-0.240","773","","f","","","","","","","","","","","","","key","f","16.663999999999877","768","428","./1_3_Stimuli/T_ambi40.png","朋友","Image","朋友","Match","f","true","Formal"
"","","","","","psychophysics","406","960281","0.0-9.0-0.2-0.241","616","","f","","","","","","","","","","","","","key","f","16.658095238095015","768","428","./1_3_Stimuli/T_ambi40.png","朋友","Word","朋友","Match","f","true","Formal"
"","","","","","psychophysics","407","962637","0.0-9.0-0.2-0.242","1193","","f","","","","","","","","","","","","","key","f","16.661142857143258","768","428","./1_3_Stimuli/C_ambi40.png","他人","Image","他人","Match","f","true","Formal"
"","","","","","psychophysics","408","964422","0.0-9.0-0.2-0.243","622","","j","","","","","","","","","","","","","key","j","16.66150943396222","768","428","./1_3_Stimuli/S_ambi40.png","他人","Word","自我","Mismatch","j","true","Formal"
"","","","","","psychophysics","409","966665","0.0-9.0-0.2-0.244","1088","","f","","","","","","","","","","","","","key","f","16.65880597014859","768","428","./1_3_Stimuli/S_ambi40.png","朋友","Word","自我","Mismatch","j","false","Formal"
"","","","","","psychophysics","410","968386","0.0-9.0-0.2-0.245","566","","j","","","","","","","","","","","","","key","j","16.658823529411308","768","428","./1_3_Stimuli/C_ambi40.png","朋友","Word","他人","Mismatch","j","true","Formal"
"","","","","","psychophysics","411","970645","0.0-9.0-0.2-0.246","1109","","j","","","","","","","","","","","","","key","j","16.66133333333354","768","428","./1_3_Stimuli/T_ambi40.png","他人","Image","朋友","Mismatch","j","true","Formal"
"","","","","","psychophysics","412","972568","0.0-9.0-0.2-0.247","770","","f","","","","","","","","","","","","","key","f","16.662982456139982","768","428","./1_3_Stimuli/S_ambi40.png","自我","Image","自我","Match","f","true","Formal"
"","","","","","psychophysics","413","974320","0.0-9.0-0.2-0.248","495","","j","","","","","","","","","","","","","key","j","16.66096153846145","768","428","./1_3_Stimuli/T_ambi40.png","朋友","Image","朋友","Match","f","false","Formal"
"","","","","","psychophysics","414","976103","0.0-9.0-0.2-0.249","626","","f","","","","","","","","","","","","","key","f","16.660754716980385","768","428","./1_3_Stimuli/C_ambi40.png","朋友","Image","他人","Mismatch","j","false","Formal"
"","","","","","psychophysics","415","978455","0.0-9.0-0.2-0.250","1190","","j","","","","","","","","","","","","","key","j","16.661285714285416","768","428","./1_3_Stimuli/C_ambi40.png","他人","Word","他人","Match","f","false","Formal"
"","","","","","psychophysics","416","980512","0.0-9.0-0.2-0.251","903","","f","","","","","","","","","","","","","key","f","16.660975609756477","768","428","./1_3_Stimuli/S_ambi40.png","自我","Word","自我","Match","f","true","Formal"
"","","","","","psychophysics","417","982254","0.0-9.0-0.2-0.252","580","","f","","","","","","","","","","","","","key","f","16.661165048544593","768","428","./1_3_Stimuli/C_ambi40.png","自我","Image","他人","Mismatch","j","false","Formal"
"","","","","","psychophysics","418","984120","0.0-9.0-0.2-0.253","715","","j","","","","","","","","","","","","","key","j","16.66108108108112","768","428","./1_3_Stimuli/T_ambi40.png","自我","Word","朋友","Mismatch","j","true","Formal"
"","","","","","psychophysics","419","985967","0.0-9.0-0.2-0.254","690","","f","","","","","","","","","","","","","key","f","16.661090909090657","768","428","./1_3_Stimuli/S_ambi40.png","自我","Image","自我","Match","f","true","Formal"
"","","","","","psychophysics","420","988672","0.0-9.0-0.2-0.255","1539","","f","","","","","","","","","","","","","key","f","16.661234567901207","768","428","./1_3_Stimuli/S_ambi40.png","他人","Image","自我","Mismatch","j","false","Formal"
