success,timeout,failed_images,failed_audio,failed_video,trial_type,trial_index,time_elapsed,internal_node_id,rt,stimulus,response,value,item_width_mm,item_height_mm,item_width_px,px2mm,view_dist_mm,item_width_deg,px2deg,scale_factor,win_width_deg,win_height_deg,view_history,response_type,key_press,avg_frame_time,center_x,center_y,image,word,target,valence,matchness,correct_response,correct,exp_condition,result
TRUE,FALSE,[],[],[],preload,0,9546,0.0-0.0,,,,,,,,,,,,,,,,,,,,,,,,,,,,,
,,,,,html-keyboard-response,1,30290,0.0-1.0,20742,"
     <p>您好，欢迎参加本次实验。</p>
     <p>为充分保障您的权利，请确保您已经知晓并同意《参与实验同意书》以及《数据公开知情同意书》。</p>
     <p>如果您未见过上述内容，请咨询实验员。</p>
     <p>如果您选择继续实验，则表示您已经清楚两份知情同意书的内容并同意。</p>
     <p> <div style = ""color: green""><按任意键至下页></div> </p>
     ", ,,,,,,,,,,,,,,,,,,,,,,,,,,
,,,,,html-keyboard-response,2,33538,0.0-2.0-0.0,3247,"
      <p>本实验首先需要您填写一些基本个人信息。</p>
      <p> <div style = ""color: green""><按任意键至下页></div></p>
      ", ,,,,,,,,,,,,,,,,,,,,,,,,,,
,,,,,call-function,3,33539,0.0-2.0-1.0,,,,,,,,,,,,,,,,,,,,,,,,,,,,,
,,,,,survey-html-form,4,79957,0.0-2.0-2.0,45899,,{"Q0":"1002"},,,,,,,,,,,,,,,,,,,,,,,,,,
,,,,,html-button-response,5,81332,0.0-2.0-3.0,1371,<p style = 'color : white'>您的性别</p>,1,,,,,,,,,,,,,,,,,,,,,,,,,,
,,,,,survey-html-form,6,88562,0.0-2.0-4.0,7228,,{"Q0":"2002"},,,,,,,,,,,,,,,,,,,,,,,,,,
,,,,,survey-html-form,7,92128,0.0-2.0-5.0,3565,,{"Q0":"5"},,,,,,,,,,,,,,,,,,,,,,,,,,
,,,,,virtual-chinrest,8,213707,0.0-3.0,121574,,,,85.6,53.98,496.0314953,5.795736418,493.14,9.920629905,50,0.766080387,26.04,11.8,,,,,,,,,,,,,,,
TRUE,,,,,fullscreen,9,220004,0.0-4.0,,,,,,,,,,,,,,,,,,,,,,,,,,,,,
,,,,,instructions,10,313667,0.0-5.0,93660,,,,,,,,,,,,,,"[{""page_index"":0,""viewing_time"":39815},{""page_index"":1,""viewing_time"":21587},{""page_index"":2,""viewing_time"":4477},{""page_index"":3,""viewing_time"":25808},{""page_index"":4,""viewing_time"":1973}]",,,,,,,,,,,,,,
,,,,,psychophysics,11,316377,0.0-6.0-0.0-0.0,null,,null,,,,,,,,,,,,,key,null,24.74650459,650.9524105,361.9047783,3_Stimuli/S_ambi40.png,朋友,Image,朋友,Match,f,FALSE,Practice,
,,,,,html-keyboard-response,12,316691,0.0-6.0-0.0-1.0,null,<span class='add_' style='color:yellow; font-size: 70px;'> 太慢! </span>,null,,,,,,,,,,,,,,,,,,,,,,,,,feedback,
,,,,,psychophysics,13,318287,0.0-6.0-0.0-0.1,429,,j,,,,,,,,,,,,,key,j,16.83083871,650.9524105,361.9047783,3_Stimuli/S_ambi40.png,他人,Word,朋友,Mismatch,j,TRUE,Practice,
,,,,,html-keyboard-response,14,318601,0.0-6.0-0.0-1.1,null,<span style='color:GreenYellow; font-size: 70px;'>正确! </span>,null,,,,,,,,,,,,,,,,,,,,,,,,,feedback,
,,,,,psychophysics,15,320176,0.0-6.0-0.0-0.2,423,,f,,,,,,,,,,,,,key,f,16.65069149,650.9524105,361.9047783,3_Stimuli/T_ambi40.png,他人,Word,他人,Match,f,TRUE,Practice,
,,,,,html-keyboard-response,16,320486,0.0-6.0-0.0-1.2,null,<span style='color:GreenYellow; font-size: 70px;'>正确! </span>,null,,,,,,,,,,,,,,,,,,,,,,,,,feedback,
,,,,,psychophysics,17,322289,0.0-6.0-0.0-0.3,634,,j,,,,,,,,,,,,,key,j,19.61101111,650.9524105,361.9047783,3_Stimuli/C_ambi40.png,自我,Image,自我,Match,f,FALSE,Practice,
,,,,,html-keyboard-response,18,322599,0.0-6.0-0.0-1.3,null,<span style='color:red; font-size: 70px;'>错误! </span>,null,,,,,,,,,,,,,,,,,,,,,,,,,feedback,
,,,,,psychophysics,19,324660,0.0-6.0-0.0-0.4,890,,j,,,,,,,,,,,,,key,j,19.3468381,650.9524105,361.9047783,3_Stimuli/S_ambi40.png,自我,Image,朋友,Mismatch,j,TRUE,Practice,
,,,,,html-keyboard-response,20,324966,0.0-6.0-0.0-1.4,null,<span style='color:GreenYellow; font-size: 70px;'>正确! </span>,null,,,,,,,,,,,,,,,,,,,,,,,,,feedback,
,,,,,psychophysics,21,327069,0.0-6.0-0.0-0.5,945,,j,,,,,,,,,,,,,key,j,16.650688,650.9524105,361.9047783,3_Stimuli/C_ambi40.png,自我,Word,自我,Match,f,FALSE,Practice,
,,,,,html-keyboard-response,22,327376,0.0-6.0-0.0-1.5,null,<span style='color:red; font-size: 70px;'>错误! </span>,null,,,,,,,,,,,,,,,,,,,,,,,,,feedback,
,,,,,psychophysics,23,329191,0.0-6.0-0.0-0.6,663,,f,,,,,,,,,,,,,key,f,19.54655435,650.9524105,361.9047783,3_Stimuli/T_ambi40.png,朋友,Image,他人,Mismatch,j,FALSE,Practice,
,,,,,html-keyboard-response,24,329505,0.0-6.0-0.0-1.6,null,<span style='color:red; font-size: 70px;'>错误! </span>,null,,,,,,,,,,,,,,,,,,,,,,,,,feedback,
,,,,,psychophysics,25,331469,0.0-6.0-0.0-0.7,809,,j,,,,,,,,,,,,,key,j,18.20647664,650.9524105,361.9047783,3_Stimuli/S_ambi40.png,朋友,Word,朋友,Match,f,FALSE,Practice,
,,,,,html-keyboard-response,26,331779,0.0-6.0-0.0-1.7,null,<span style='color:red; font-size: 70px;'>错误! </span>,null,,,,,,,,,,,,,,,,,,,,,,,,,feedback,
,,,,,psychophysics,27,333837,0.0-6.0-0.0-0.8,896,,f,,,,,,,,,,,,,key,f,16.65087705,650.9524105,361.9047783,3_Stimuli/S_ambi40.png,朋友,Word,朋友,Match,f,TRUE,Practice,
,,,,,html-keyboard-response,28,334146,0.0-6.0-0.0-1.8,null,<span style='color:GreenYellow; font-size: 70px;'>正确! </span>,null,,,,,,,,,,,,,,,,,,,,,,,,,feedback,
,,,,,psychophysics,29,336033,0.0-6.0-0.0-0.9,730,,j,,,,,,,,,,,,,key,j,16.65094643,650.9524105,361.9047783,3_Stimuli/S_ambi40.png,自我,Word,朋友,Mismatch,j,TRUE,Practice,
,,,,,html-keyboard-response,30,336349,0.0-6.0-0.0-1.9,null,<span style='color:GreenYellow; font-size: 70px;'>正确! </span>,null,,,,,,,,,,,,,,,,,,,,,,,,,feedback,
,,,,,psychophysics,31,338780,0.0-6.0-0.0-0.10,1279,,f,,,,,,,,,,,,,key,f,16.65103448,650.9524105,361.9047783,3_Stimuli/T_ambi40.png,他人,Image,他人,Match,f,TRUE,Practice,
,,,,,html-keyboard-response,32,339089,0.0-6.0-0.0-1.10,null,<span style='color:GreenYellow; font-size: 70px;'>正确! </span>,null,,,,,,,,,,,,,,,,,,,,,,,,,feedback,
,,,,,psychophysics,33,341005,0.0-6.0-0.0-0.11,753,,j,,,,,,,,,,,,,key,j,16.65007018,650.9524105,361.9047783,3_Stimuli/T_ambi40.png,朋友,Word,他人,Mismatch,j,TRUE,Practice,
,,,,,html-keyboard-response,34,341313,0.0-6.0-0.0-1.11,null,<span style='color:GreenYellow; font-size: 70px;'>正确! </span>,null,,,,,,,,,,,,,,,,,,,,,,,,,feedback,
,,,,,psychophysics,35,343220,0.0-6.0-0.0-0.12,751,,j,,,,,,,,,,,,,key,j,16.65036842,650.9524105,361.9047783,3_Stimuli/C_ambi40.png,自我,Image,自我,Match,f,FALSE,Practice,
,,,,,html-keyboard-response,36,343534,0.0-6.0-0.0-1.12,null,<span style='color:red; font-size: 70px;'>错误! </span>,null,,,,,,,,,,,,,,,,,,,,,,,,,feedback,
,,,,,psychophysics,37,345450,0.0-6.0-0.0-0.13,755,,f,,,,,,,,,,,,,key,f,16.65026316,650.9524105,361.9047783,3_Stimuli/C_ambi40.png,自我,Word,自我,Match,f,TRUE,Practice,
,,,,,html-keyboard-response,38,345753,0.0-6.0-0.0-1.13,null,<span style='color:GreenYellow; font-size: 70px;'>正确! </span>,null,,,,,,,,,,,,,,,,,,,,,,,,,feedback,
,,,,,psychophysics,39,347555,0.0-6.0-0.0-0.14,647,,j,,,,,,,,,,,,,key,j,16.64991589,650.9524105,361.9047783,3_Stimuli/C_ambi40.png,他人,Image,自我,Mismatch,j,TRUE,Practice,
,,,,,html-keyboard-response,40,347871,0.0-6.0-0.0-1.14,null,<span style='color:GreenYellow; font-size: 70px;'>正确! </span>,null,,,,,,,,,,,,,,,,,,,,,,,,,feedback,
,,,,,psychophysics,41,349989,0.0-6.0-0.0-0.15,964,,j,,,,,,,,,,,,,key,j,16.64969048,650.9524105,361.9047783,3_Stimuli/S_ambi40.png,朋友,Image,朋友,Match,f,FALSE,Practice,
,,,,,html-keyboard-response,42,350302,0.0-6.0-0.0-1.15,null,<span style='color:red; font-size: 70px;'>错误! </span>,null,,,,,,,,,,,,,,,,,,,,,,,,,feedback,
,,,,,psychophysics,43,352358,0.0-6.0-0.0-0.16,887,,j,,,,,,,,,,,,,key,j,16.65053659,650.9524105,361.9047783,3_Stimuli/T_ambi40.png,他人,Word,他人,Match,f,FALSE,Practice,
,,,,,html-keyboard-response,44,352671,0.0-6.0-0.0-1.16,null,<span style='color:red; font-size: 70px;'>错误! </span>,null,,,,,,,,,,,,,,,,,,,,,,,,,feedback,
,,,,,psychophysics,45,354657,0.0-6.0-0.0-0.17,816,,f,,,,,,,,,,,,,key,f,16.65087288,650.9524105,361.9047783,3_Stimuli/T_ambi40.png,自我,Image,他人,Mismatch,j,FALSE,Practice,
,,,,,html-keyboard-response,46,354962,0.0-6.0-0.0-1.17,null,<span style='color:red; font-size: 70px;'>错误! </span>,null,,,,,,,,,,,,,,,,,,,,,,,,,feedback,
,,,,,psychophysics,47,357509,0.0-6.0-0.0-0.18,1391,,f,,,,,,,,,,,,,key,f,16.65074342,650.9524105,361.9047783,3_Stimuli/C_ambi40.png,朋友,Word,自我,Mismatch,j,FALSE,Practice,
,,,,,html-keyboard-response,48,357812,0.0-6.0-0.0-1.18,null,<span style='color:red; font-size: 70px;'>错误! </span>,null,,,,,,,,,,,,,,,,,,,,,,,,,feedback,
,,,,,psychophysics,49,359951,0.0-6.0-0.0-0.19,984,,f,,,,,,,,,,,,,key,f,16.65035156,650.9524105,361.9047783,3_Stimuli/T_ambi40.png,他人,Image,他人,Match,f,TRUE,Practice,
,,,,,html-keyboard-response,50,360268,0.0-6.0-0.0-1.19,null,<span style='color:GreenYellow; font-size: 70px;'>正确! </span>,null,,,,,,,,,,,,,,,,,,,,,,,,,feedback,
,,,,,psychophysics,51,362542,0.0-6.0-0.0-0.20,1113,,j,,,,,,,,,,,,,key,j,16.65048889,650.9524105,361.9047783,3_Stimuli/C_ambi40.png,朋友,Image,自我,Mismatch,j,TRUE,Practice,
,,,,,html-keyboard-response,52,362850,0.0-6.0-0.0-1.20,null,<span style='color:GreenYellow; font-size: 70px;'>正确! </span>,null,,,,,,,,,,,,,,,,,,,,,,,,,feedback,
,,,,,psychophysics,53,364755,0.0-6.0-0.0-0.21,745,,j,,,,,,,,,,,,,key,j,16.65076106,650.9524105,361.9047783,3_Stimuli/C_ambi40.png,他人,Word,自我,Mismatch,j,TRUE,Practice,
,,,,,html-keyboard-response,54,365060,0.0-6.0-0.0-1.21,null,<span style='color:GreenYellow; font-size: 70px;'>正确! </span>,null,,,,,,,,,,,,,,,,,,,,,,,,,feedback,
,,,,,psychophysics,55,366886,0.0-6.0-0.0-0.22,673,,j,,,,,,,,,,,,,key,j,16.80649533,650.9524105,361.9047783,3_Stimuli/S_ambi40.png,他人,Image,朋友,Mismatch,j,TRUE,Practice,
,,,,,html-keyboard-response,56,367199,0.0-6.0-0.0-1.22,null,<span style='color:GreenYellow; font-size: 70px;'>正确! </span>,null,,,,,,,,,,,,,,,,,,,,,,,,,feedback,
,,,,,psychophysics,57,369657,0.0-6.0-0.0-0.23,1301,,j,,,,,,,,,,,,,key,j,16.65077397,650.9524105,361.9047783,3_Stimuli/T_ambi40.png,自我,Word,他人,Mismatch,j,TRUE,Practice,
,,,,,html-keyboard-response,58,369966,0.0-6.0-0.0-1.23,null,<span style='color:GreenYellow; font-size: 70px;'>正确! </span>,null,,,,,,,,,,,,,,,,,,,,,,,,,feedback,
,,,,,html-keyboard-response,59,373146,0.0-6.0-1.0-0.0,3177,<style>.context{color:white; font-size: 35px; line-height:40px}</style>                        <div><p class='context'>您正确回答了58% 的试次。</p><p class='context'>您的平均反应时为830毫秒。</p><p> <div style = 'color: green'><按空格键至下页></div></p>, ,,,,,,,,,,,,,,,,,,,,,,,,,,
,,,,,instructions,60,389870,0.0-6.0-1.0-1.0,16722,,,,,,,,,,,,,,"[{""page_index"":0,""viewing_time"":2821},{""page_index"":1,""viewing_time"":12836},{""page_index"":2,""viewing_time"":1064}]",,,,,,,,,,,,,,
,,,,,psychophysics,61,392149,0.0-6.1-0.1-0.24,1115,,j,,,,,,,,,,,,,key,j,16.65064444,650.9524105,361.9047783,3_Stimuli/T_ambi40.png,自我,Word,他人,Mismatch,j,TRUE,Practice,
,,,,,html-keyboard-response,62,392457,0.0-6.1-0.1-1.24,null,<span style='color:GreenYellow; font-size: 70px;'>正确! </span>,null,,,,,,,,,,,,,,,,,,,,,,,,,feedback,
,,,,,psychophysics,63,394402,0.0-6.1-0.1-0.25,794,,j,,,,,,,,,,,,,key,j,16.65083621,650.9524105,361.9047783,3_Stimuli/T_ambi40.png,朋友,Word,他人,Mismatch,j,TRUE,Practice,
,,,,,html-keyboard-response,64,394718,0.0-6.1-0.1-1.25,null,<span style='color:GreenYellow; font-size: 70px;'>正确! </span>,null,,,,,,,,,,,,,,,,,,,,,,,,,feedback,
,,,,,psychophysics,65,396838,0.0-6.1-0.1-0.26,968,,f,,,,,,,,,,,,,key,f,16.65066667,650.9524105,361.9047783,3_Stimuli/C_ambi40.png,自我,Word,自我,Match,f,TRUE,Practice,
,,,,,html-keyboard-response,66,397149,0.0-6.1-0.1-1.26,null,<span style='color:GreenYellow; font-size: 70px;'>正确! </span>,null,,,,,,,,,,,,,,,,,,,,,,,,,feedback,
,,,,,psychophysics,67,398992,0.0-6.1-0.1-0.27,689,,f,,,,,,,,,,,,,key,f,16.64966055,650.9524105,361.9047783,3_Stimuli/C_ambi40.png,自我,Image,自我,Match,f,TRUE,Practice,
,,,,,html-keyboard-response,68,399296,0.0-6.1-0.1-1.27,null,<span style='color:GreenYellow; font-size: 70px;'>正确! </span>,null,,,,,,,,,,,,,,,,,,,,,,,,,feedback,
,,,,,psychophysics,69,401037,0.0-6.1-0.1-0.28,576,,j,,,,,,,,,,,,,key,j,18.44151613,650.9524105,361.9047783,3_Stimuli/S_ambi40.png,朋友,Word,朋友,Match,f,FALSE,Practice,
,,,,,html-keyboard-response,70,401351,0.0-6.1-0.1-1.28,null,<span style='color:red; font-size: 70px;'>错误! </span>,null,,,,,,,,,,,,,,,,,,,,,,,,,feedback,
,,,,,psychophysics,71,403298,0.0-6.1-0.1-0.29,789,,j,,,,,,,,,,,,,key,j,16.65075221,650.9524105,361.9047783,3_Stimuli/T_ambi40.png,自我,Image,他人,Mismatch,j,TRUE,Practice,
,,,,,html-keyboard-response,72,403608,0.0-6.1-0.1-1.29,null,<span style='color:GreenYellow; font-size: 70px;'>正确! </span>,null,,,,,,,,,,,,,,,,,,,,,,,,,feedback,
,,,,,psychophysics,73,405921,0.0-6.1-0.1-0.30,1158,,j,,,,,,,,,,,,,key,j,16.65053623,650.9524105,361.9047783,3_Stimuli/C_ambi40.png,他人,Image,自我,Mismatch,j,TRUE,Practice,
,,,,,html-keyboard-response,74,406226,0.0-6.1-0.1-1.30,null,<span style='color:GreenYellow; font-size: 70px;'>正确! </span>,null,,,,,,,,,,,,,,,,,,,,,,,,,feedback,
,,,,,psychophysics,75,407937,0.0-6.1-0.1-0.31,554,,f,,,,,,,,,,,,,key,f,16.65086275,650.9524105,361.9047783,3_Stimuli/T_ambi40.png,他人,Word,他人,Match,f,TRUE,Practice,
,,,,,html-keyboard-response,76,408255,0.0-6.1-0.1-1.31,null,<span style='color:GreenYellow; font-size: 70px;'>正确! </span>,null,,,,,,,,,,,,,,,,,,,,,,,,,feedback,
,,,,,psychophysics,77,410561,0.0-6.1-0.1-0.32,1153,,j,,,,,,,,,,,,,key,j,16.65081752,650.9524105,361.9047783,3_Stimuli/S_ambi40.png,朋友,Image,朋友,Match,f,FALSE,Practice,
,,,,,html-keyboard-response,78,410865,0.0-6.1-0.1-1.32,null,<span style='color:red; font-size: 70px;'>错误! </span>,null,,,,,,,,,,,,,,,,,,,,,,,,,feedback,
,,,,,psychophysics,79,412775,0.0-6.1-0.1-0.33,757,,f,,,,,,,,,,,,,key,f,16.6509823,650.9524105,361.9047783,3_Stimuli/S_ambi40.png,朋友,Image,朋友,Match,f,TRUE,Practice,
,,,,,html-keyboard-response,80,413082,0.0-6.1-0.1-1.33,null,<span style='color:GreenYellow; font-size: 70px;'>正确! </span>,null,,,,,,,,,,,,,,,,,,,,,,,,,feedback,
,,,,,psychophysics,81,415115,0.0-6.1-0.1-0.34,846,,j,,,,,,,,,,,,,key,j,16.6508595,650.9524105,361.9047783,3_Stimuli/C_ambi40.png,朋友,Image,自我,Mismatch,j,TRUE,Practice,
,,,,,html-keyboard-response,82,415427,0.0-6.1-0.1-1.34,null,<span style='color:GreenYellow; font-size: 70px;'>正确! </span>,null,,,,,,,,,,,,,,,,,,,,,,,,,feedback,
,,,,,psychophysics,83,417810,0.0-6.1-0.1-0.35,1229,,f,,,,,,,,,,,,,key,f,16.6506338,650.9524105,361.9047783,3_Stimuli/C_ambi40.png,自我,Word,自我,Match,f,TRUE,Practice,
,,,,,html-keyboard-response,84,418121,0.0-6.1-0.1-1.35,null,<span style='color:GreenYellow; font-size: 70px;'>正确! </span>,null,,,,,,,,,,,,,,,,,,,,,,,,,feedback,
,,,,,psychophysics,85,420009,0.0-6.1-0.1-0.36,734,,j,,,,,,,,,,,,,key,j,16.65080357,650.9524105,361.9047783,3_Stimuli/C_ambi40.png,他人,Word,自我,Mismatch,j,TRUE,Practice,
,,,,,html-keyboard-response,86,420318,0.0-6.1-0.1-1.36,null,<span style='color:GreenYellow; font-size: 70px;'>正确! </span>,null,,,,,,,,,,,,,,,,,,,,,,,,,feedback,
,,,,,psychophysics,87,422048,0.0-6.1-0.1-0.37,575,,f,,,,,,,,,,,,,key,f,16.65074757,650.9524105,361.9047783,3_Stimuli/T_ambi40.png,他人,Image,他人,Match,f,TRUE,Practice,
,,,,,html-keyboard-response,88,422362,0.0-6.1-0.1-1.37,null,<span style='color:GreenYellow; font-size: 70px;'>正确! </span>,null,,,,,,,,,,,,,,,,,,,,,,,,,feedback,
,,,,,psychophysics,89,424107,0.0-6.1-0.1-0.38,589,,f,,,,,,,,,,,,,key,f,16.65104808,650.9524105,361.9047783,3_Stimuli/T_ambi40.png,他人,Word,他人,Match,f,TRUE,Practice,
,,,,,html-keyboard-response,90,424430,0.0-6.1-0.1-1.38,null,<span style='color:GreenYellow; font-size: 70px;'>正确! </span>,null,,,,,,,,,,,,,,,,,,,,,,,,,feedback,
,,,,,psychophysics,91,426505,0.0-6.1-0.1-0.39,917,,f,,,,,,,,,,,,,key,f,16.65073387,650.9524105,361.9047783,3_Stimuli/S_ambi40.png,自我,Image,朋友,Mismatch,j,FALSE,Practice,
,,,,,html-keyboard-response,92,426843,0.0-6.1-0.1-1.39,null,<span style='color:red; font-size: 70px;'>错误! </span>,null,,,,,,,,,,,,,,,,,,,,,,,,,feedback,
,,,,,psychophysics,93,428627,0.0-6.1-0.1-0.40,629,,j,,,,,,,,,,,,,key,j,16.65036792,650.9524105,361.9047783,3_Stimuli/S_ambi40.png,他人,Word,朋友,Mismatch,j,TRUE,Practice,
,,,,,html-keyboard-response,94,428931,0.0-6.1-0.1-1.40,null,<span style='color:GreenYellow; font-size: 70px;'>正确! </span>,null,,,,,,,,,,,,,,,,,,,,,,,,,feedback,
,,,,,psychophysics,95,431051,0.0-6.1-0.1-0.41,963,,j,,,,,,,,,,,,,key,j,16.65113492,650.9524105,361.9047783,3_Stimuli/T_ambi40.png,他人,Image,他人,Match,f,FALSE,Practice,
,,,,,html-keyboard-response,96,431354,0.0-6.1-0.1-1.41,null,<span style='color:red; font-size: 70px;'>错误! </span>,null,,,,,,,,,,,,,,,,,,,,,,,,,feedback,
,,,,,psychophysics,97,434078,0.0-6.1-0.1-0.42,null,,null,,,,,,,,,,,,,key,null,16.65046012,650.9524105,361.9047783,3_Stimuli/S_ambi40.png,自我,Word,朋友,Mismatch,j,FALSE,Practice,
,,,,,html-keyboard-response,98,434393,0.0-6.1-0.1-1.42,null,<span class='add_' style='color:yellow; font-size: 70px;'> 太慢! </span>,null,,,,,,,,,,,,,,,,,,,,,,,,,feedback,
,,,,,psychophysics,99,436778,0.0-6.1-0.1-0.43,1222,,j,,,,,,,,,,,,,key,j,16.65016197,650.9524105,361.9047783,3_Stimuli/C_ambi40.png,朋友,Word,自我,Mismatch,j,TRUE,Practice,
,,,,,html-keyboard-response,100,437091,0.0-6.1-0.1-1.43,null,<span style='color:GreenYellow; font-size: 70px;'>正确! </span>,null,,,,,,,,,,,,,,,,,,,,,,,,,feedback,
,,,,,psychophysics,101,438977,0.0-6.1-0.1-0.44,732,,f,,,,,,,,,,,,,key,f,16.65039286,650.9524105,361.9047783,3_Stimuli/S_ambi40.png,朋友,Word,朋友,Match,f,TRUE,Practice,
,,,,,html-keyboard-response,102,439287,0.0-6.1-0.1-1.44,null,<span style='color:GreenYellow; font-size: 70px;'>正确! </span>,null,,,,,,,,,,,,,,,,,,,,,,,,,feedback,
,,,,,psychophysics,103,441110,0.0-6.1-0.1-0.45,670,,j,,,,,,,,,,,,,key,j,16.65073148,650.9524105,361.9047783,3_Stimuli/T_ambi40.png,朋友,Image,他人,Mismatch,j,TRUE,Practice,
,,,,,html-keyboard-response,104,441419,0.0-6.1-0.1-1.45,null,<span style='color:GreenYellow; font-size: 70px;'>正确! </span>,null,,,,,,,,,,,,,,,,,,,,,,,,,feedback,
,,,,,psychophysics,105,443424,0.0-6.1-0.1-0.46,838,,f,,,,,,,,,,,,,key,f,16.65059664,650.9524105,361.9047783,3_Stimuli/C_ambi40.png,自我,Image,自我,Match,f,TRUE,Practice,
,,,,,html-keyboard-response,106,443732,0.0-6.1-0.1-1.46,null,<span style='color:GreenYellow; font-size: 70px;'>正确! </span>,null,,,,,,,,,,,,,,,,,,,,,,,,,feedback,
,,,,,psychophysics,107,445480,0.0-6.1-0.1-0.47,594,,j,,,,,,,,,,,,,key,j,16.65084466,650.9524105,361.9047783,3_Stimuli/S_ambi40.png,他人,Image,朋友,Mismatch,j,TRUE,Practice,
,,,,,html-keyboard-response,108,445789,0.0-6.1-0.1-1.47,null,<span style='color:GreenYellow; font-size: 70px;'>正确! </span>,null,,,,,,,,,,,,,,,,,,,,,,,,,feedback,
,,,,,html-keyboard-response,109,448612,0.0-6.1-1.1-0.1,2821,<style>.context{color:white; font-size: 35px; line-height:40px}</style>                        <div><p class='context'>您正确回答了79% 的试次。</p><p class='context'>您的平均反应时为815毫秒。</p><p> <div style = 'color: green'><按空格键至下页></div></p>, ,,,,,,,,,,,,,,,,,,,,,,,,,,
,,,,,instructions,110,515764,0.0-6.1-1.1-1.1,67149,,,,,,,,,,,,,,"[{""page_index"":0,""viewing_time"":2601},{""page_index"":1,""viewing_time"":62958},{""page_index"":2,""viewing_time"":1589}]",,,,,,,,,,,,,,
,,,,,psychophysics,111,517652,0.0-6.2-0.2-0.48,729,,f,,,,,,,,,,,,,key,f,16.65007143,650.9524105,361.9047783,3_Stimuli/T_ambi40.png,他人,Image,他人,Match,f,TRUE,Practice,
,,,,,html-keyboard-response,112,517963,0.0-6.2-0.2-1.48,null,<span style='color:GreenYellow; font-size: 70px;'>正确! </span>,null,,,,,,,,,,,,,,,,,,,,,,,,,feedback,
,,,,,psychophysics,113,519756,0.0-6.2-0.2-0.49,624,,f,,,,,,,,,,,,,key,f,16.65107547,650.9524105,361.9047783,3_Stimuli/T_ambi40.png,他人,Word,他人,Match,f,TRUE,Practice,
,,,,,html-keyboard-response,114,520071,0.0-6.2-0.2-1.49,null,<span style='color:GreenYellow; font-size: 70px;'>正确! </span>,null,,,,,,,,,,,,,,,,,,,,,,,,,feedback,
,,,,,psychophysics,115,522002,0.0-6.2-0.2-0.50,779,,f,,,,,,,,,,,,,key,f,16.65073043,650.9524105,361.9047783,3_Stimuli/C_ambi40.png,自我,Image,自我,Match,f,TRUE,Practice,
,,,,,html-keyboard-response,116,522317,0.0-6.2-0.2-1.50,null,<span style='color:GreenYellow; font-size: 70px;'>正确! </span>,null,,,,,,,,,,,,,,,,,,,,,,,,,feedback,
,,,,,psychophysics,117,524019,0.0-6.2-0.2-0.51,548,,f,,,,,,,,,,,,,key,f,16.65146535,650.9524105,361.9047783,3_Stimuli/C_ambi40.png,自我,Image,自我,Match,f,TRUE,Practice,
,,,,,html-keyboard-response,118,524323,0.0-6.2-0.2-1.51,null,<span style='color:GreenYellow; font-size: 70px;'>正确! </span>,null,,,,,,,,,,,,,,,,,,,,,,,,,feedback,
,,,,,psychophysics,119,526270,0.0-6.2-0.2-0.52,782,,j,,,,,,,,,,,,,key,j,16.65040517,650.9524105,361.9047783,3_Stimuli/T_ambi40.png,自我,Image,他人,Mismatch,j,TRUE,Practice,
,,,,,html-keyboard-response,120,526578,0.0-6.2-0.2-1.52,null,<span style='color:GreenYellow; font-size: 70px;'>正确! </span>,null,,,,,,,,,,,,,,,,,,,,,,,,,feedback,
,,,,,psychophysics,121,528570,0.0-6.2-0.2-0.53,837,,j,,,,,,,,,,,,,key,j,16.65083193,650.9524105,361.9047783,3_Stimuli/S_ambi40.png,他人,Image,朋友,Mismatch,j,TRUE,Practice,
,,,,,html-keyboard-response,122,528877,0.0-6.2-0.2-1.53,null,<span style='color:GreenYellow; font-size: 70px;'>正确! </span>,null,,,,,,,,,,,,,,,,,,,,,,,,,feedback,
,,,,,psychophysics,123,530868,0.0-6.2-0.2-0.54,835,,f,,,,,,,,,,,,,key,f,16.64928571,650.9524105,361.9047783,3_Stimuli/C_ambi40.png,自我,Word,自我,Match,f,TRUE,Practice,
,,,,,html-keyboard-response,124,531171,0.0-6.2-0.2-1.54,null,<span style='color:GreenYellow; font-size: 70px;'>正确! </span>,null,,,,,,,,,,,,,,,,,,,,,,,,,feedback,
,,,,,psychophysics,125,533283,0.0-6.2-0.2-0.55,955,,j,,,,,,,,,,,,,key,j,16.65015873,650.9524105,361.9047783,3_Stimuli/S_ambi40.png,朋友,Image,朋友,Match,f,FALSE,Practice,
,,,,,html-keyboard-response,126,533591,0.0-6.2-0.2-1.55,null,<span style='color:red; font-size: 70px;'>错误! </span>,null,,,,,,,,,,,,,,,,,,,,,,,,,feedback,
,,,,,psychophysics,127,535580,0.0-6.2-0.2-0.56,838,,j,,,,,,,,,,,,,key,j,16.65065546,650.9524105,361.9047783,3_Stimuli/C_ambi40.png,朋友,Word,自我,Mismatch,j,TRUE,Practice,
,,,,,html-keyboard-response,128,535894,0.0-6.2-0.2-1.56,null,<span style='color:GreenYellow; font-size: 70px;'>正确! </span>,null,,,,,,,,,,,,,,,,,,,,,,,,,feedback,
,,,,,psychophysics,129,537937,0.0-6.2-0.2-0.57,885,,f,,,,,,,,,,,,,key,f,16.65092562,650.9524105,361.9047783,3_Stimuli/T_ambi40.png,他人,Image,他人,Match,f,TRUE,Practice,
,,,,,html-keyboard-response,130,538238,0.0-6.2-0.2-1.57,null,<span style='color:GreenYellow; font-size: 70px;'>正确! </span>,null,,,,,,,,,,,,,,,,,,,,,,,,,feedback,
,,,,,psychophysics,131,540299,0.0-6.2-0.2-0.58,898,,f,,,,,,,,,,,,,key,f,16.64278689,650.9524105,361.9047783,3_Stimuli/T_ambi40.png,他人,Word,他人,Match,f,TRUE,Practice,
,,,,,html-keyboard-response,132,540603,0.0-6.2-0.2-1.58,null,<span style='color:GreenYellow; font-size: 70px;'>正确! </span>,null,,,,,,,,,,,,,,,,,,,,,,,,,feedback,
,,,,,psychophysics,133,542550,0.0-6.2-0.2-0.59,793,,f,,,,,,,,,,,,,key,f,16.64375652,650.9524105,361.9047783,3_Stimuli/S_ambi40.png,朋友,Word,朋友,Match,f,TRUE,Practice,
,,,,,html-keyboard-response,134,542866,0.0-6.2-0.2-1.59,null,<span style='color:GreenYellow; font-size: 70px;'>正确! </span>,null,,,,,,,,,,,,,,,,,,,,,,,,,feedback,
,,,,,psychophysics,135,544939,0.0-6.2-0.2-0.60,922,,j,,,,,,,,,,,,,key,j,16.64672358,650.9524105,361.9047783,3_Stimuli/S_ambi40.png,他人,Word,朋友,Mismatch,j,TRUE,Practice,
,,,,,html-keyboard-response,136,545247,0.0-6.2-0.2-1.60,null,<span style='color:GreenYellow; font-size: 70px;'>正确! </span>,null,,,,,,,,,,,,,,,,,,,,,,,,,feedback,
,,,,,psychophysics,137,547377,0.0-6.2-0.2-0.61,977,,j,,,,,,,,,,,,,key,j,16.65065354,650.9524105,361.9047783,3_Stimuli/C_ambi40.png,朋友,Image,自我,Mismatch,j,TRUE,Practice,
,,,,,html-keyboard-response,138,547680,0.0-6.2-0.2-1.61,null,<span style='color:GreenYellow; font-size: 70px;'>正确! </span>,null,,,,,,,,,,,,,,,,,,,,,,,,,feedback,
,,,,,psychophysics,139,549805,0.0-6.2-0.2-0.62,973,,j,,,,,,,,,,,,,key,j,16.64607143,650.9524105,361.9047783,3_Stimuli/S_ambi40.png,自我,Word,朋友,Mismatch,j,TRUE,Practice,
,,,,,html-keyboard-response,140,550116,0.0-6.2-0.2-1.62,null,<span style='color:GreenYellow; font-size: 70px;'>正确! </span>,null,,,,,,,,,,,,,,,,,,,,,,,,,feedback,
,,,,,psychophysics,141,552168,0.0-6.2-0.2-0.63,899,,j,,,,,,,,,,,,,key,j,16.65071311,650.9524105,361.9047783,3_Stimuli/C_ambi40.png,他人,Word,自我,Mismatch,j,TRUE,Practice,
,,,,,html-keyboard-response,142,552478,0.0-6.2-0.2-1.63,null,<span style='color:GreenYellow; font-size: 70px;'>正确! </span>,null,,,,,,,,,,,,,,,,,,,,,,,,,feedback,
,,,,,psychophysics,143,554631,0.0-6.2-0.2-0.64,991,,j,,,,,,,,,,,,,key,j,16.64960938,650.9524105,361.9047783,3_Stimuli/S_ambi40.png,自我,Image,朋友,Mismatch,j,TRUE,Practice,
,,,,,html-keyboard-response,144,554946,0.0-6.2-0.2-1.64,null,<span style='color:GreenYellow; font-size: 70px;'>正确! </span>,null,,,,,,,,,,,,,,,,,,,,,,,,,feedback,
,,,,,psychophysics,145,556815,0.0-6.2-0.2-0.65,705,,j,,,,,,,,,,,,,key,j,16.65052252,650.9524105,361.9047783,3_Stimuli/T_ambi40.png,朋友,Image,他人,Mismatch,j,TRUE,Practice,
,,,,,html-keyboard-response,146,557130,0.0-6.2-0.2-1.65,null,<span style='color:GreenYellow; font-size: 70px;'>正确! </span>,null,,,,,,,,,,,,,,,,,,,,,,,,,feedback,
,,,,,psychophysics,147,559333,0.0-6.2-0.2-0.66,1051,,f,,,,,,,,,,,,,key,f,16.65115267,650.9524105,361.9047783,3_Stimuli/S_ambi40.png,朋友,Word,朋友,Match,f,TRUE,Practice,
,,,,,html-keyboard-response,148,559636,0.0-6.2-0.2-1.66,null,<span style='color:GreenYellow; font-size: 70px;'>正确! </span>,null,,,,,,,,,,,,,,,,,,,,,,,,,feedback,
,,,,,psychophysics,149,561481,0.0-6.2-0.2-0.67,682,,f,,,,,,,,,,,,,key,f,16.65061468,650.9524105,361.9047783,3_Stimuli/S_ambi40.png,朋友,Image,朋友,Match,f,TRUE,Practice,
,,,,,html-keyboard-response,150,561787,0.0-6.2-0.2-1.67,null,<span style='color:GreenYellow; font-size: 70px;'>正确! </span>,null,,,,,,,,,,,,,,,,,,,,,,,,,feedback,
,,,,,psychophysics,151,563559,0.0-6.2-0.2-0.68,619,,j,,,,,,,,,,,,,key,j,16.65013333,650.9524105,361.9047783,3_Stimuli/T_ambi40.png,朋友,Word,他人,Mismatch,j,TRUE,Practice,
,,,,,html-keyboard-response,152,563872,0.0-6.2-0.2-1.68,null,<span style='color:GreenYellow; font-size: 70px;'>正确! </span>,null,,,,,,,,,,,,,,,,,,,,,,,,,feedback,
,,,,,psychophysics,153,565839,0.0-6.2-0.2-0.69,807,,j,,,,,,,,,,,,,key,j,16.65092308,650.9524105,361.9047783,3_Stimuli/C_ambi40.png,他人,Image,自我,Mismatch,j,TRUE,Practice,
,,,,,html-keyboard-response,154,566147,0.0-6.2-0.2-1.69,null,<span style='color:GreenYellow; font-size: 70px;'>正确! </span>,null,,,,,,,,,,,,,,,,,,,,,,,,,feedback,
,,,,,psychophysics,155,567901,0.0-6.2-0.2-0.70,600,,j,,,,,,,,,,,,,key,j,16.65082692,650.9524105,361.9047783,3_Stimuli/C_ambi40.png,自我,Word,自我,Match,f,FALSE,Practice,
,,,,,html-keyboard-response,156,568215,0.0-6.2-0.2-1.70,null,<span style='color:red; font-size: 70px;'>错误! </span>,null,,,,,,,,,,,,,,,,,,,,,,,,,feedback,
,,,,,psychophysics,157,570439,0.0-6.2-0.2-0.71,1064,,j,,,,,,,,,,,,,key,j,16.65090152,650.9524105,361.9047783,3_Stimuli/T_ambi40.png,自我,Word,他人,Mismatch,j,TRUE,Practice,
,,,,,html-keyboard-response,158,570756,0.0-6.2-0.2-1.71,null,<span style='color:GreenYellow; font-size: 70px;'>正确! </span>,null,,,,,,,,,,,,,,,,,,,,,,,,,feedback,
,,,,,html-keyboard-response,159,575481,0.0-7.0,4723,<style>.context{color:white; font-size: 35px; line-height:40px}</style>                          <div><p class='context'>您正确回答了92% 的试次。</p><p class='context'>您的平均反应时为829毫秒。</p><p class='context'>恭喜您完成练习。按任意键进入正式实验。</p><p class='footer' style='font-size: 35px; line-height:40px;'>请在进入正式实验实验之前将您的<span style='color: lightgreen;'>食指</span>放在电脑键盘的相应键位上进行按键。</p>, ,,,,,,,,,,,,,,,,,,,,,,,,,,
,,,,,psychophysics,160,577509,0.0-8.0-0.0-0.0,870,,j,,,,,,,,,,,,,key,j,16.6509,650.9524105,361.9047783,3_Stimuli/C_ambi40.png,他人,Image,自我,Mismatch,j,TRUE,Formal,
,,,,,psychophysics,161,579930,0.0-8.0-0.0-0.1,1262,,f,,,,,,,,,,,,,key,f,17.37407246,650.9524105,361.9047783,3_Stimuli/S_ambi40.png,朋友,Image,朋友,Match,f,TRUE,Formal,
,,,,,psychophysics,162,582017,0.0-8.0-0.0-0.2,934,,j,,,,,,,,,,,,,key,j,16.6499187,650.9524105,361.9047783,3_Stimuli/C_ambi40.png,他人,Word,自我,Mismatch,j,TRUE,Formal,
,,,,,psychophysics,163,584049,0.0-8.0-0.0-0.3,873,,f,,,,,,,,,,,,,key,f,16.65054167,650.9524105,361.9047783,3_Stimuli/C_ambi40.png,自我,Word,自我,Match,f,TRUE,Formal,
,,,,,psychophysics,164,585963,0.0-8.0-0.0-0.4,754,,j,,,,,,,,,,,,,key,j,16.65135398,650.9524105,361.9047783,3_Stimuli/T_ambi40.png,自我,Image,他人,Mismatch,j,TRUE,Formal,
,,,,,psychophysics,165,587886,0.0-8.0-0.0-0.5,763,,j,,,,,,,,,,,,,key,j,18.60943137,650.9524105,361.9047783,3_Stimuli/C_ambi40.png,朋友,Word,自我,Mismatch,j,TRUE,Formal,
,,,,,psychophysics,166,589692,0.0-8.0-0.0-0.6,647,,f,,,,,,,,,,,,,key,f,16.65021296,650.9524105,361.9047783,3_Stimuli/C_ambi40.png,自我,Word,自我,Match,f,TRUE,Formal,
,,,,,psychophysics,167,591642,0.0-8.0-0.0-0.7,794,,j,,,,,,,,,,,,,key,j,16.65131897,650.9524105,361.9047783,3_Stimuli/T_ambi40.png,朋友,Word,他人,Mismatch,j,TRUE,Formal,
,,,,,psychophysics,168,593799,0.0-8.0-0.0-0.8,993,,f,,,,,,,,,,,,,key,f,16.65032031,650.9524105,361.9047783,3_Stimuli/C_ambi40.png,自我,Image,自我,Match,f,TRUE,Formal,
,,,,,psychophysics,169,595532,0.0-8.0-0.0-0.9,579,,j,,,,,,,,,,,,,key,j,17.1499,650.9524105,361.9047783,3_Stimuli/S_ambi40.png,自我,Word,朋友,Mismatch,j,TRUE,Formal,
,,,,,psychophysics,170,597475,0.0-8.0-0.0-0.10,789,,j,,,,,,,,,,,,,key,j,16.79657018,650.9524105,361.9047783,3_Stimuli/S_ambi40.png,他人,Word,朋友,Mismatch,j,TRUE,Formal,
,,,,,psychophysics,171,599344,0.0-8.0-0.0-0.11,716,,j,,,,,,,,,,,,,key,j,16.95584404,650.9524105,361.9047783,3_Stimuli/S_ambi40.png,朋友,Image,朋友,Match,f,FALSE,Formal,
,,,,,psychophysics,172,601437,0.0-8.0-0.0-0.12,939,,f,,,,,,,,,,,,,key,f,16.6498871,650.9524105,361.9047783,3_Stimuli/S_ambi40.png,他人,Image,朋友,Mismatch,j,FALSE,Formal,
,,,,,psychophysics,173,603341,0.0-8.0-0.0-0.13,749,,j,,,,,,,,,,,,,key,j,16.65046903,650.9524105,361.9047783,3_Stimuli/C_ambi40.png,自我,Image,自我,Match,f,FALSE,Formal,
,,,,,psychophysics,174,605405,0.0-8.0-0.0-0.14,906,,j,,,,,,,,,,,,,key,j,16.6497459,650.9524105,361.9047783,3_Stimuli/T_ambi40.png,自我,Word,他人,Mismatch,j,TRUE,Formal,
,,,,,psychophysics,175,607232,0.0-8.0-0.0-0.15,675,,f,,,,,,,,,,,,,key,f,16.65047222,650.9524105,361.9047783,3_Stimuli/T_ambi40.png,他人,Word,他人,Match,f,TRUE,Formal,
,,,,,psychophysics,176,609126,0.0-8.0-0.0-0.16,739,,j,,,,,,,,,,,,,key,j,16.65011504,650.9524105,361.9047783,3_Stimuli/T_ambi40.png,朋友,Image,他人,Mismatch,j,TRUE,Formal,
,,,,,psychophysics,177,611030,0.0-8.0-0.0-0.17,747,,j,,,,,,,,,,,,,key,j,16.65038053,650.9524105,361.9047783,3_Stimuli/T_ambi40.png,他人,Image,他人,Match,f,FALSE,Formal,
,,,,,psychophysics,178,613082,0.0-8.0-0.0-0.18,896,,j,,,,,,,,,,,,,key,j,16.65052459,650.9524105,361.9047783,3_Stimuli/C_ambi40.png,朋友,Image,自我,Mismatch,j,TRUE,Formal,
,,,,,psychophysics,179,614891,0.0-8.0-0.0-0.19,657,,j,,,,,,,,,,,,,key,j,16.65051402,650.9524105,361.9047783,3_Stimuli/S_ambi40.png,朋友,Word,朋友,Match,f,FALSE,Formal,
,,,,,psychophysics,180,617005,0.0-8.0-0.0-0.20,960,,j,,,,,,,,,,,,,key,j,16.65062698,650.9524105,361.9047783,3_Stimuli/S_ambi40.png,自我,Image,朋友,Mismatch,j,TRUE,Formal,
,,,,,psychophysics,181,618667,0.0-8.0-0.0-0.21,506,,f,,,,,,,,,,,,,key,f,16.6505,650.9524105,361.9047783,3_Stimuli/S_ambi40.png,朋友,Word,朋友,Match,f,TRUE,Formal,
,,,,,psychophysics,182,620378,0.0-8.0-0.0-0.22,555,,j,,,,,,,,,,,,,key,j,16.65008911,650.9524105,361.9047783,3_Stimuli/T_ambi40.png,他人,Image,他人,Match,f,FALSE,Formal,
,,,,,psychophysics,183,622231,0.0-8.0-0.0-0.23,686,,f,,,,,,,,,,,,,key,f,16.65033636,650.9524105,361.9047783,3_Stimuli/T_ambi40.png,他人,Word,他人,Match,f,TRUE,Formal,
,,,,,psychophysics,184,624581,0.0-8.0-0.0-0.24,1191,,f,,,,,,,,,,,,,key,f,16.65067143,650.9524105,361.9047783,3_Stimuli/T_ambi40.png,他人,Image,他人,Match,f,TRUE,Formal,
,,,,,psychophysics,185,626496,0.0-8.0-0.0-0.25,756,,f,,,,,,,,,,,,,key,f,16.6512193,650.9524105,361.9047783,3_Stimuli/C_ambi40.png,自我,Image,自我,Match,f,TRUE,Formal,
,,,,,psychophysics,186,628338,0.0-8.0-0.0-0.26,686,,j,,,,,,,,,,,,,key,j,16.65052294,650.9524105,361.9047783,3_Stimuli/T_ambi40.png,朋友,Word,他人,Mismatch,j,TRUE,Formal,
,,,,,psychophysics,187,630309,0.0-8.0-0.0-0.27,809,,f,,,,,,,,,,,,,key,f,16.6502735,650.9524105,361.9047783,3_Stimuli/C_ambi40.png,自我,Word,自我,Match,f,TRUE,Formal,
,,,,,psychophysics,188,632254,0.0-8.0-0.0-0.28,785,,f,,,,,,,,,,,,,key,f,16.65040517,650.9524105,361.9047783,3_Stimuli/T_ambi40.png,他人,Word,他人,Match,f,TRUE,Formal,
,,,,,psychophysics,189,634023,0.0-8.0-0.0-0.29,605,,j,,,,,,,,,,,,,key,j,16.65018095,650.9524105,361.9047783,3_Stimuli/C_ambi40.png,他人,Word,自我,Mismatch,j,TRUE,Formal,
,,,,,psychophysics,190,635809,0.0-8.0-0.0-0.30,629,,j,,,,,,,,,,,,,key,j,16.65029245,650.9524105,361.9047783,3_Stimuli/S_ambi40.png,他人,Word,朋友,Mismatch,j,TRUE,Formal,
,,,,,psychophysics,191,637714,0.0-8.0-0.0-0.31,754,,j,,,,,,,,,,,,,key,j,16.65049558,650.9524105,361.9047783,3_Stimuli/S_ambi40.png,自我,Image,朋友,Mismatch,j,TRUE,Formal,
,,,,,psychophysics,192,639815,0.0-8.0-0.0-0.32,934,,j,,,,,,,,,,,,,key,j,16.6503629,650.9524105,361.9047783,3_Stimuli/T_ambi40.png,自我,Word,他人,Mismatch,j,TRUE,Formal,
,,,,,psychophysics,193,642178,0.0-8.0-0.0-0.33,1205,,f,,,,,,,,,,,,,key,f,16.65015603,650.9524105,361.9047783,3_Stimuli/S_ambi40.png,朋友,Image,朋友,Match,f,TRUE,Formal,
,,,,,psychophysics,194,643875,0.0-8.0-0.0-0.34,537,,f,,,,,,,,,,,,,key,f,16.65051485,650.9524105,361.9047783,3_Stimuli/S_ambi40.png,朋友,Image,朋友,Match,f,TRUE,Formal,
,,,,,psychophysics,195,645531,0.0-8.0-0.0-0.35,498,,f,,,,,,,,,,,,,key,f,16.65010204,650.9524105,361.9047783,3_Stimuli/S_ambi40.png,朋友,Word,朋友,Match,f,TRUE,Formal,
,,,,,psychophysics,196,647372,0.0-8.0-0.0-0.36,683,,j,,,,,,,,,,,,,key,j,16.65010092,650.9524105,361.9047783,3_Stimuli/S_ambi40.png,自我,Word,朋友,Mismatch,j,TRUE,Formal,
,,,,,psychophysics,197,649213,0.0-8.0-0.0-0.37,684,,f,,,,,,,,,,,,,key,f,16.65011009,650.9524105,361.9047783,3_Stimuli/S_ambi40.png,他人,Image,朋友,Mismatch,j,FALSE,Formal,
,,,,,psychophysics,198,651084,0.0-8.0-0.0-0.38,714,,j,,,,,,,,,,,,,key,j,16.65045045,650.9524105,361.9047783,3_Stimuli/T_ambi40.png,自我,Image,他人,Mismatch,j,TRUE,Formal,
,,,,,psychophysics,199,653204,0.0-8.0-0.0-0.39,957,,j,,,,,,,,,,,,,key,j,16.65060317,650.9524105,361.9047783,3_Stimuli/C_ambi40.png,朋友,Image,自我,Mismatch,j,TRUE,Formal,
,,,,,psychophysics,200,655248,0.0-8.0-0.0-0.40,891,,f,,,,,,,,,,,,,key,f,16.65031967,650.9524105,361.9047783,3_Stimuli/S_ambi40.png,朋友,Word,朋友,Match,f,TRUE,Formal,
,,,,,psychophysics,201,657231,0.0-8.0-0.0-0.41,818,,j,,,,,,,,,,,,,key,j,16.65029661,650.9524105,361.9047783,3_Stimuli/T_ambi40.png,朋友,Image,他人,Mismatch,j,TRUE,Formal,
,,,,,psychophysics,202,659231,0.0-8.0-0.0-0.42,848,,f,,,,,,,,,,,,,key,f,16.93507692,650.9524105,361.9047783,3_Stimuli/C_ambi40.png,自我,Image,自我,Match,f,TRUE,Formal,
,,,,,psychophysics,203,660977,0.0-8.0-0.0-0.43,589,,f,,,,,,,,,,,,,key,f,16.65048077,650.9524105,361.9047783,3_Stimuli/C_ambi40.png,朋友,Word,自我,Mismatch,j,FALSE,Formal,
,,,,,psychophysics,204,662732,0.0-8.0-0.0-0.44,597,,j,,,,,,,,,,,,,key,j,16.64994231,650.9524105,361.9047783,3_Stimuli/T_ambi40.png,他人,Word,他人,Match,f,FALSE,Formal,
,,,,,psychophysics,205,664618,0.0-8.0-0.0-0.45,734,,f,,,,,,,,,,,,,key,f,16.65060714,650.9524105,361.9047783,3_Stimuli/T_ambi40.png,他人,Image,他人,Match,f,TRUE,Formal,
,,,,,psychophysics,206,666436,0.0-8.0-0.0-0.46,664,,f,,,,,,,,,,,,,key,f,16.65035185,650.9524105,361.9047783,3_Stimuli/C_ambi40.png,自我,Word,自我,Match,f,TRUE,Formal,
,,,,,psychophysics,207,668357,0.0-8.0-0.0-0.47,759,,j,,,,,,,,,,,,,key,j,16.65050877,650.9524105,361.9047783,3_Stimuli/C_ambi40.png,他人,Image,自我,Mismatch,j,TRUE,Formal,
,,,,,psychophysics,208,670363,0.0-8.0-0.0-0.48,849,,f,,,,,,,,,,,,,key,f,16.65070588,650.9524105,361.9047783,3_Stimuli/S_ambi40.png,朋友,Word,朋友,Match,f,TRUE,Formal,
,,,,,psychophysics,209,672522,0.0-8.0-0.0-0.49,997,,j,,,,,,,,,,,,,key,j,16.65102344,650.9524105,361.9047783,3_Stimuli/C_ambi40.png,他人,Word,自我,Mismatch,j,TRUE,Formal,
,,,,,psychophysics,210,674279,0.0-8.0-0.0-0.50,605,,f,,,,,,,,,,,,,key,f,16.64986667,650.9524105,361.9047783,3_Stimuli/C_ambi40.png,自我,Image,自我,Match,f,TRUE,Formal,
,,,,,psychophysics,211,676113,0.0-8.0-0.0-0.51,671,,f,,,,,,,,,,,,,key,f,16.65072477,650.9524105,361.9047783,3_Stimuli/T_ambi40.png,他人,Word,他人,Match,f,TRUE,Formal,
,,,,,psychophysics,212,677899,0.0-8.0-0.0-0.52,632,,j,,,,,,,,,,,,,key,j,16.65120755,650.9524105,361.9047783,3_Stimuli/T_ambi40.png,朋友,Image,他人,Mismatch,j,TRUE,Formal,
,,,,,psychophysics,213,679931,0.0-8.0-0.0-0.53,878,,f,,,,,,,,,,,,,key,f,16.65056198,650.9524105,361.9047783,3_Stimuli/S_ambi40.png,他人,Word,朋友,Mismatch,j,FALSE,Formal,
,,,,,psychophysics,214,681902,0.0-8.0-0.0-0.54,819,,f,,,,,,,,,,,,,key,f,16.65061017,650.9524105,361.9047783,3_Stimuli/T_ambi40.png,自我,Word,他人,Mismatch,j,FALSE,Formal,
,,,,,psychophysics,215,684040,0.0-8.0-0.0-0.55,970,,j,,,,,,,,,,,,,key,j,16.65047244,650.9524105,361.9047783,3_Stimuli/T_ambi40.png,自我,Image,他人,Mismatch,j,TRUE,Formal,
,,,,,psychophysics,216,685948,0.0-8.0-0.0-0.56,755,,j,,,,,,,,,,,,,key,j,16.65037168,650.9524105,361.9047783,3_Stimuli/T_ambi40.png,朋友,Word,他人,Mismatch,j,TRUE,Formal,
,,,,,psychophysics,217,687886,0.0-8.0-0.0-0.57,777,,j,,,,,,,,,,,,,key,j,16.65065217,650.9524105,361.9047783,3_Stimuli/T_ambi40.png,他人,Image,他人,Match,f,FALSE,Formal,
,,,,,psychophysics,218,689503,0.0-8.0-0.0-0.58,459,,f,,,,,,,,,,,,,key,f,16.65010417,650.9524105,361.9047783,3_Stimuli/T_ambi40.png,他人,Word,他人,Match,f,TRUE,Formal,
,,,,,psychophysics,219,691289,0.0-8.0-0.0-0.59,627,,j,,,,,,,,,,,,,key,j,16.65016981,650.9524105,361.9047783,3_Stimuli/C_ambi40.png,朋友,Word,自我,Mismatch,j,TRUE,Formal,
,,,,,psychophysics,220,693259,0.0-8.0-0.0-0.60,818,,j,,,,,,,,,,,,,key,j,16.6505641,650.9524105,361.9047783,3_Stimuli/S_ambi40.png,自我,Word,朋友,Mismatch,j,TRUE,Formal,
,,,,,psychophysics,221,695237,0.0-8.0-0.0-0.61,816,,f,,,,,,,,,,,,,key,f,16.65058974,650.9524105,361.9047783,3_Stimuli/C_ambi40.png,他人,Image,自我,Mismatch,j,FALSE,Formal,
,,,,,psychophysics,222,697147,0.0-8.0-0.0-0.62,754,,j,,,,,,,,,,,,,key,j,16.65042478,650.9524105,361.9047783,3_Stimuli/T_ambi40.png,他人,Image,他人,Match,f,FALSE,Formal,
,,,,,psychophysics,223,699305,0.0-8.0-0.0-0.63,1006,,f,,,,,,,,,,,,,key,f,16.65034109,650.9524105,361.9047783,3_Stimuli/S_ambi40.png,朋友,Image,朋友,Match,f,TRUE,Formal,
,,,,,psychophysics,224,701167,0.0-8.0-0.0-0.64,709,,j,,,,,,,,,,,,,key,j,16.65050909,650.9524105,361.9047783,3_Stimuli/S_ambi40.png,自我,Image,朋友,Mismatch,j,TRUE,Formal,
,,,,,psychophysics,225,703200,0.0-8.0-0.0-0.65,870,,f,,,,,,,,,,,,,key,f,16.65049587,650.9524105,361.9047783,3_Stimuli/C_ambi40.png,朋友,Image,自我,Mismatch,j,FALSE,Formal,
,,,,,psychophysics,226,705642,0.0-8.0-0.0-0.66,1284,,j,,,,,,,,,,,,,key,j,16.65028276,650.9524105,361.9047783,3_Stimuli/C_ambi40.png,自我,Word,自我,Match,f,FALSE,Formal,
,,,,,psychophysics,227,707950,0.0-8.0-0.0-0.67,1153,,f,,,,,,,,,,,,,key,f,16.64994161,650.9524105,361.9047783,3_Stimuli/S_ambi40.png,朋友,Word,朋友,Match,f,TRUE,Formal,
,,,,,psychophysics,228,709748,0.0-8.0-0.0-0.68,638,,f,,,,,,,,,,,,,key,f,16.65045794,650.9524105,361.9047783,3_Stimuli/S_ambi40.png,朋友,Image,朋友,Match,f,TRUE,Formal,
,,,,,psychophysics,229,711562,0.0-8.0-0.0-0.69,659,,f,,,,,,,,,,,,,key,f,16.65066667,650.9524105,361.9047783,3_Stimuli/C_ambi40.png,自我,Word,自我,Match,f,TRUE,Formal,
,,,,,psychophysics,230,713391,0.0-8.0-0.0-0.70,673,,f,,,,,,,,,,,,,key,f,16.65053211,650.9524105,361.9047783,3_Stimuli/C_ambi40.png,自我,Image,自我,Match,f,TRUE,Formal,
,,,,,psychophysics,231,715634,0.0-8.0-0.0-0.71,1084,,j,,,,,,,,,,,,,key,j,16.65047368,650.9524105,361.9047783,3_Stimuli/S_ambi40.png,他人,Image,朋友,Mismatch,j,TRUE,Formal,
,,,,,psychophysics,232,717568,0.0-8.0-0.0-0.72,778,,j,,,,,,,,,,,,,key,j,16.65042105,650.9524105,361.9047783,3_Stimuli/T_ambi40.png,朋友,Word,他人,Mismatch,j,TRUE,Formal,
,,,,,psychophysics,233,719486,0.0-8.0-0.0-0.73,753,,f,,,,,,,,,,,,,key,f,16.79775221,650.9524105,361.9047783,3_Stimuli/S_ambi40.png,朋友,Image,朋友,Match,f,TRUE,Formal,
,,,,,psychophysics,234,722100,0.0-8.0-0.0-0.74,1452,,j,,,,,,,,,,,,,key,j,16.6503141,650.9524105,361.9047783,3_Stimuli/T_ambi40.png,朋友,Image,他人,Mismatch,j,TRUE,Formal,
,,,,,psychophysics,235,724088,0.0-8.0-0.0-0.75,828,,j,,,,,,,,,,,,,key,j,16.65045763,650.9524105,361.9047783,3_Stimuli/S_ambi40.png,自我,Word,朋友,Mismatch,j,TRUE,Formal,
,,,,,psychophysics,236,726523,0.0-8.0-0.0-0.76,1282,,f,,,,,,,,,,,,,key,f,16.65035862,650.9524105,361.9047783,3_Stimuli/T_ambi40.png,他人,Word,他人,Match,f,TRUE,Formal,
,,,,,psychophysics,237,728641,0.0-8.0-0.0-0.77,960,,j,,,,,,,,,,,,,key,j,16.65024603,650.9524105,361.9047783,3_Stimuli/S_ambi40.png,他人,Image,朋友,Mismatch,j,TRUE,Formal,
,,,,,psychophysics,238,730455,0.0-8.0-0.0-0.78,657,,j,,,,,,,,,,,,,key,j,16.65059259,650.9524105,361.9047783,3_Stimuli/S_ambi40.png,他人,Word,朋友,Mismatch,j,TRUE,Formal,
,,,,,psychophysics,239,732409,0.0-8.0-0.0-0.79,800,,f,,,,,,,,,,,,,key,f,16.64978261,650.9524105,361.9047783,3_Stimuli/C_ambi40.png,自我,Word,自我,Match,f,TRUE,Formal,
,,,,,psychophysics,240,734239,0.0-8.0-0.0-0.80,672,,j,,,,,,,,,,,,,key,j,16.64786239,650.9524105,361.9047783,3_Stimuli/C_ambi40.png,朋友,Word,自我,Mismatch,j,TRUE,Formal,
,,,,,psychophysics,241,736266,0.0-8.0-0.0-0.81,869,,j,,,,,,,,,,,,,key,j,16.6503719,650.9524105,361.9047783,3_Stimuli/S_ambi40.png,自我,Image,朋友,Mismatch,j,TRUE,Formal,
,,,,,psychophysics,242,738035,0.0-8.0-0.0-0.82,605,,f,,,,,,,,,,,,,key,f,16.65077143,650.9524105,361.9047783,3_Stimuli/T_ambi40.png,自我,Word,他人,Mismatch,j,FALSE,Formal,
,,,,,psychophysics,243,739768,0.0-8.0-0.0-0.83,573,,j,,,,,,,,,,,,,key,j,16.65075728,650.9524105,361.9047783,3_Stimuli/C_ambi40.png,他人,Word,自我,Mismatch,j,TRUE,Formal,
,,,,,psychophysics,244,741835,0.0-8.0-0.0-0.84,904,,f,,,,,,,,,,,,,key,f,16.65020325,650.9524105,361.9047783,3_Stimuli/S_ambi40.png,朋友,Word,朋友,Match,f,TRUE,Formal,
,,,,,psychophysics,245,744114,0.0-8.0-0.0-0.85,1126,,f,,,,,,,,,,,,,key,f,16.65021324,650.9524105,361.9047783,3_Stimuli/C_ambi40.png,自我,Image,自我,Match,f,TRUE,Formal,
,,,,,psychophysics,246,745831,0.0-8.0-0.0-0.86,558,,f,,,,,,,,,,,,,key,f,16.65043137,650.9524105,361.9047783,3_Stimuli/T_ambi40.png,他人,Word,他人,Match,f,TRUE,Formal,
,,,,,psychophysics,247,747559,0.0-8.0-0.0-0.87,572,,f,,,,,,,,,,,,,key,f,16.65051456,650.9524105,361.9047783,3_Stimuli/C_ambi40.png,自我,Word,自我,Match,f,TRUE,Formal,
,,,,,psychophysics,248,749409,0.0-8.0-0.0-0.88,685,,j,,,,,,,,,,,,,key,j,16.65057273,650.9524105,361.9047783,3_Stimuli/C_ambi40.png,朋友,Image,自我,Mismatch,j,TRUE,Formal,
,,,,,psychophysics,249,751121,0.0-8.0-0.0-0.89,559,,f,,,,,,,,,,,,,key,f,16.65087255,650.9524105,361.9047783,3_Stimuli/T_ambi40.png,自我,Image,他人,Mismatch,j,FALSE,Formal,
,,,,,psychophysics,250,752958,0.0-8.0-0.0-0.90,676,,j,,,,,,,,,,,,,key,j,16.65014679,650.9524105,361.9047783,3_Stimuli/S_ambi40.png,朋友,Image,朋友,Match,f,FALSE,Formal,
,,,,,psychophysics,251,754760,0.0-8.0-0.0-0.91,649,,j,,,,,,,,,,,,,key,j,16.65043925,650.9524105,361.9047783,3_Stimuli/T_ambi40.png,他人,Image,他人,Match,f,FALSE,Formal,
,,,,,psychophysics,252,757029,0.0-8.0-0.0-0.92,1115,,f,,,,,,,,,,,,,key,f,16.6506791,650.9524105,361.9047783,3_Stimuli/T_ambi40.png,他人,Image,他人,Match,f,TRUE,Formal,
,,,,,psychophysics,253,758884,0.0-8.0-0.0-0.93,694,,j,,,,,,,,,,,,,key,j,16.6506,650.9524105,361.9047783,3_Stimuli/S_ambi40.png,朋友,Word,朋友,Match,f,FALSE,Formal,
,,,,,psychophysics,254,760981,0.0-8.0-0.0-0.94,939,,f,,,,,,,,,,,,,key,f,16.650512,650.9524105,361.9047783,3_Stimuli/C_ambi40.png,他人,Image,自我,Mismatch,j,FALSE,Formal,
,,,,,psychophysics,255,763030,0.0-8.0-0.0-0.95,891,,j,,,,,,,,,,,,,key,j,16.65047541,650.9524105,361.9047783,3_Stimuli/C_ambi40.png,自我,Image,自我,Match,f,FALSE,Formal,
,,,,,psychophysics,256,765193,0.0-8.0-0.0-0.96,1003,,f,,,,,,,,,,,,,key,f,16.65044961,650.9524105,361.9047783,3_Stimuli/T_ambi40.png,他人,Word,他人,Match,f,TRUE,Formal,
,,,,,psychophysics,257,766892,0.0-8.0-0.0-0.97,548,,j,,,,,,,,,,,,,key,j,16.65043564,650.9524105,361.9047783,3_Stimuli/T_ambi40.png,自我,Image,他人,Mismatch,j,TRUE,Formal,
,,,,,psychophysics,258,768813,0.0-8.0-0.0-0.98,769,,j,,,,,,,,,,,,,key,j,16.65020354,650.9524105,361.9047783,3_Stimuli/T_ambi40.png,自我,Word,他人,Mismatch,j,TRUE,Formal,
,,,,,psychophysics,259,770493,0.0-8.0-0.0-0.99,527,,j,,,,,,,,,,,,,key,j,16.65076768,650.9524105,361.9047783,3_Stimuli/T_ambi40.png,朋友,Word,他人,Mismatch,j,TRUE,Formal,
,,,,,psychophysics,260,772568,0.0-8.0-0.0-0.100,920,,j,,,,,,,,,,,,,key,j,16.65049194,650.9524105,361.9047783,3_Stimuli/S_ambi40.png,自我,Image,朋友,Mismatch,j,TRUE,Formal,
,,,,,psychophysics,261,774428,0.0-8.0-0.0-0.101,700,,f,,,,,,,,,,,,,key,f,16.6514,650.9524105,361.9047783,3_Stimuli/C_ambi40.png,自我,Image,自我,Match,f,TRUE,Formal,
,,,,,psychophysics,262,776479,0.0-8.0-0.0-0.102,900,,f,,,,,,,,,,,,,key,f,16.65040164,650.9524105,361.9047783,3_Stimuli/S_ambi40.png,朋友,Image,朋友,Match,f,TRUE,Formal,
,,,,,psychophysics,263,778145,0.0-8.0-0.0-0.103,504,,f,,,,,,,,,,,,,key,f,16.65039394,650.9524105,361.9047783,3_Stimuli/S_ambi40.png,朋友,Word,朋友,Match,f,TRUE,Formal,
,,,,,psychophysics,264,780229,0.0-8.0-0.0-0.104,921,,j,,,,,,,,,,,,,key,j,16.65033065,650.9524105,361.9047783,3_Stimuli/T_ambi40.png,朋友,Image,他人,Mismatch,j,TRUE,Formal,
,,,,,psychophysics,265,782254,0.0-8.0-0.0-0.105,865,,j,,,,,,,,,,,,,key,j,16.65042975,650.9524105,361.9047783,3_Stimuli/S_ambi40.png,他人,Image,朋友,Mismatch,j,TRUE,Formal,
,,,,,psychophysics,266,784419,0.0-8.0-0.0-0.106,1002,,f,,,,,,,,,,,,,key,f,16.65028682,650.9524105,361.9047783,3_Stimuli/C_ambi40.png,自我,Word,自我,Match,f,TRUE,Formal,
,,,,,psychophysics,267,786271,0.0-8.0-0.0-0.107,698,,j,,,,,,,,,,,,,key,j,16.65044545,650.9524105,361.9047783,3_Stimuli/S_ambi40.png,自我,Word,朋友,Mismatch,j,TRUE,Formal,
,,,,,psychophysics,268,788405,0.0-8.0-0.0-0.108,977,,j,,,,,,,,,,,,,key,j,16.65051969,650.9524105,361.9047783,3_Stimuli/T_ambi40.png,他人,Image,他人,Match,f,FALSE,Formal,
,,,,,psychophysics,269,790330,0.0-8.0-0.0-0.109,767,,j,,,,,,,,,,,,,key,j,16.65031304,650.9524105,361.9047783,3_Stimuli/C_ambi40.png,他人,Image,自我,Mismatch,j,TRUE,Formal,
,,,,,psychophysics,270,792104,0.0-8.0-0.0-0.110,615,,j,,,,,,,,,,,,,key,j,16.65081905,650.9524105,361.9047783,3_Stimuli/S_ambi40.png,他人,Word,朋友,Mismatch,j,TRUE,Formal,
,,,,,psychophysics,271,793959,0.0-8.0-0.0-0.111,699,,f,,,,,,,,,,,,,key,f,16.64994595,650.9524105,361.9047783,3_Stimuli/S_ambi40.png,朋友,Word,朋友,Match,f,TRUE,Formal,
,,,,,psychophysics,272,795746,0.0-8.0-0.0-0.112,635,,f,,,,,,,,,,,,,key,f,16.65159434,650.9524105,361.9047783,3_Stimuli/C_ambi40.png,自我,Word,自我,Match,f,TRUE,Formal,
,,,,,psychophysics,273,797805,0.0-8.0-0.0-0.113,898,,f,,,,,,,,,,,,,key,f,16.64990984,650.9524105,361.9047783,3_Stimuli/T_ambi40.png,他人,Image,他人,Match,f,TRUE,Formal,
,,,,,psychophysics,274,799474,0.0-8.0-0.0-0.114,502,,j,,,,,,,,,,,,,key,j,16.65034343,650.9524105,361.9047783,3_Stimuli/C_ambi40.png,朋友,Word,自我,Mismatch,j,TRUE,Formal,
,,,,,psychophysics,275,801308,0.0-8.0-0.0-0.115,680,,f,,,,,,,,,,,,,key,f,16.65030275,650.9524105,361.9047783,3_Stimuli/T_ambi40.png,他人,Word,他人,Match,f,TRUE,Formal,
,,,,,psychophysics,276,802999,0.0-8.0-0.0-0.116,535,,j,,,,,,,,,,,,,key,j,16.6505,650.9524105,361.9047783,3_Stimuli/C_ambi40.png,朋友,Image,自我,Mismatch,j,TRUE,Formal,
,,,,,psychophysics,277,804682,0.0-8.0-0.0-0.117,531,,j,,,,,,,,,,,,,key,j,16.6503,650.9524105,361.9047783,3_Stimuli/C_ambi40.png,他人,Word,自我,Mismatch,j,TRUE,Formal,
,,,,,psychophysics,278,806636,0.0-8.0-0.0-0.118,786,,f,,,,,,,,,,,,,key,f,16.65046552,650.9524105,361.9047783,3_Stimuli/S_ambi40.png,朋友,Image,朋友,Match,f,TRUE,Formal,
,,,,,psychophysics,279,808802,0.0-8.0-0.0-0.119,1007,,f,,,,,,,,,,,,,key,f,16.65032558,650.9524105,361.9047783,3_Stimuli/C_ambi40.png,自我,Image,自我,Match,f,TRUE,Formal,
,,,,,html-keyboard-response,280,812929,0.0-8.0-1.0,4125,<style>.context{color:white; font-size: 35px; line-height:40px}</style>                        <div><p class='context'>您正确回答了80% 的试次。</p><p class='context'>您的平均反应时为792毫秒。</p><p> <div style = 'color: green'><按任意键进入休息></div></p>, ,,,,,,,,,,,,,,,,,,,,,,,,,,
,,,,,html-button-response,281,875340,0.0-8.0-2.0,62403,"
                  <p>您当前还剩余5组实验</p>
                  <p>现在是休息时间，当您结束休息后，您可以点击 结束休息 按钮 继续</p>
                  <p>建议休息时间还剩余<span id=""iii"">60</span>秒</p>",0,,,,,,,,,,,,,,,,,,,,,,,,,,
,,,,,psychophysics,282,877594,0.0-8.0-0.1-0.120,1085,,f,,,,,,,,,,,,,key,f,16.65010448,650.9524105,361.9047783,3_Stimuli/T_ambi40.png,他人,Word,他人,Match,f,TRUE,Formal,
,,,,,psychophysics,283,879414,0.0-8.0-0.1-0.121,658,,f,,,,,,,,,,,,,key,f,16.65014815,650.9524105,361.9047783,3_Stimuli/C_ambi40.png,自我,Word,自我,Match,f,TRUE,Formal,
,,,,,psychophysics,284,881103,0.0-8.0-0.1-0.122,532,,j,,,,,,,,,,,,,key,j,16.65091,650.9524105,361.9047783,3_Stimuli/T_ambi40.png,朋友,Image,他人,Mismatch,j,TRUE,Formal,
,,,,,psychophysics,285,882900,0.0-8.0-0.1-0.123,646,,j,,,,,,,,,,,,,key,j,16.65074528,650.9524105,361.9047783,3_Stimuli/S_ambi40.png,他人,Image,朋友,Mismatch,j,TRUE,Formal,
,,,,,psychophysics,286,884763,0.0-8.0-0.1-0.124,707,,f,,,,,,,,,,,,,key,f,16.65003636,650.9524105,361.9047783,3_Stimuli/S_ambi40.png,朋友,Image,朋友,Match,f,TRUE,Formal,
,,,,,psychophysics,287,886425,0.0-8.0-0.1-0.125,507,,f,,,,,,,,,,,,,key,f,16.65048485,650.9524105,361.9047783,3_Stimuli/S_ambi40.png,朋友,Word,朋友,Match,f,TRUE,Formal,
,,,,,psychophysics,288,888157,0.0-8.0-0.1-0.126,574,,j,,,,,,,,,,,,,key,j,16.65117476,650.9524105,361.9047783,3_Stimuli/C_ambi40.png,他人,Image,自我,Mismatch,j,TRUE,Formal,
,,,,,psychophysics,289,890115,0.0-8.0-0.1-0.127,803,,j,,,,,,,,,,,,,key,j,16.65022222,650.9524105,361.9047783,3_Stimuli/S_ambi40.png,自我,Image,朋友,Mismatch,j,TRUE,Formal,
,,,,,psychophysics,290,891922,0.0-8.0-0.1-0.128,651,,f,,,,,,,,,,,,,key,f,16.65013084,650.9524105,361.9047783,3_Stimuli/T_ambi40.png,他人,Word,他人,Match,f,TRUE,Formal,
,,,,,psychophysics,291,893689,0.0-8.0-0.1-0.129,612,,j,,,,,,,,,,,,,key,j,16.65038095,650.9524105,361.9047783,3_Stimuli/S_ambi40.png,自我,Word,朋友,Mismatch,j,TRUE,Formal,
,,,,,psychophysics,292,895559,0.0-8.0-0.1-0.130,719,,f,,,,,,,,,,,,,key,f,16.65035714,650.9524105,361.9047783,3_Stimuli/C_ambi40.png,自我,Image,自我,Match,f,TRUE,Formal,
,,,,,psychophysics,293,897363,0.0-8.0-0.1-0.131,653,,f,,,,,,,,,,,,,key,f,16.65038318,650.9524105,361.9047783,3_Stimuli/C_ambi40.png,自我,Image,自我,Match,f,TRUE,Formal,
,,,,,psychophysics,294,899078,0.0-8.0-0.1-0.132,559,,j,,,,,,,,,,,,,key,j,16.65032353,650.9524105,361.9047783,3_Stimuli/C_ambi40.png,朋友,Word,自我,Mismatch,j,TRUE,Formal,
,,,,,psychophysics,295,900830,0.0-8.0-0.1-0.133,600,,f,,,,,,,,,,,,,key,f,16.65048077,650.9524105,361.9047783,3_Stimuli/T_ambi40.png,他人,Image,他人,Match,f,TRUE,Formal,
,,,,,psychophysics,296,902546,0.0-8.0-0.1-0.134,563,,j,,,,,,,,,,,,,key,j,16.65059804,650.9524105,361.9047783,3_Stimuli/T_ambi40.png,自我,Image,他人,Mismatch,j,TRUE,Formal,
,,,,,psychophysics,297,904484,0.0-8.0-0.1-0.135,785,,j,,,,,,,,,,,,,key,j,16.65031897,650.9524105,361.9047783,3_Stimuli/T_ambi40.png,朋友,Word,他人,Mismatch,j,TRUE,Formal,
,,,,,psychophysics,298,906241,0.0-8.0-0.1-0.136,595,,j,,,,,,,,,,,,,key,j,16.65023077,650.9524105,361.9047783,3_Stimuli/S_ambi40.png,朋友,Word,朋友,Match,f,FALSE,Formal,
,,,,,psychophysics,299,908220,0.0-8.0-0.1-0.137,820,,f,,,,,,,,,,,,,key,f,16.65040678,650.9524105,361.9047783,3_Stimuli/T_ambi40.png,他人,Image,他人,Match,f,TRUE,Formal,
,,,,,psychophysics,300,910182,0.0-8.0-0.1-0.138,804,,j,,,,,,,,,,,,,key,j,16.65017094,650.9524105,361.9047783,3_Stimuli/T_ambi40.png,自我,Word,他人,Mismatch,j,TRUE,Formal,
,,,,,psychophysics,301,911999,0.0-8.0-0.1-0.139,658,,f,,,,,,,,,,,,,key,f,16.65032407,650.9524105,361.9047783,3_Stimuli/C_ambi40.png,朋友,Image,自我,Mismatch,j,FALSE,Formal,
,,,,,psychophysics,302,913879,0.0-8.0-0.1-0.140,723,,j,,,,,,,,,,,,,key,j,16.650375,650.9524105,361.9047783,3_Stimuli/C_ambi40.png,他人,Word,自我,Mismatch,j,TRUE,Formal,
,,,,,psychophysics,303,915747,0.0-8.0-0.1-0.141,717,,j,,,,,,,,,,,,,key,j,16.65037838,650.9524105,361.9047783,3_Stimuli/S_ambi40.png,他人,Word,朋友,Mismatch,j,TRUE,Formal,
,,,,,psychophysics,304,917558,0.0-8.0-0.1-0.142,655,,f,,,,,,,,,,,,,key,f,16.65250467,650.9524105,361.9047783,3_Stimuli/C_ambi40.png,自我,Word,自我,Match,f,TRUE,Formal,
,,,,,psychophysics,305,919451,0.0-8.0-0.1-0.143,731,,j,,,,,,,,,,,,,key,j,16.650375,650.9524105,361.9047783,3_Stimuli/S_ambi40.png,朋友,Image,朋友,Match,f,FALSE,Formal,
,,,,,psychophysics,306,921246,0.0-8.0-0.1-0.144,641,,j,,,,,,,,,,,,,key,j,16.65038679,650.9524105,361.9047783,3_Stimuli/T_ambi40.png,朋友,Word,他人,Mismatch,j,TRUE,Formal,
,,,,,psychophysics,307,922875,0.0-8.0-0.1-0.145,479,,f,,,,,,,,,,,,,key,f,16.65029167,650.9524105,361.9047783,3_Stimuli/S_ambi40.png,朋友,Image,朋友,Match,f,TRUE,Formal,
,,,,,psychophysics,308,924470,0.0-8.0-0.1-0.146,442,,f,,,,,,,,,,,,,key,f,16.65088421,650.9524105,361.9047783,3_Stimuli/S_ambi40.png,朋友,Word,朋友,Match,f,TRUE,Formal,
,,,,,psychophysics,309,926257,0.0-8.0-0.1-0.147,630,,f,,,,,,,,,,,,,key,f,16.65029245,650.9524105,361.9047783,3_Stimuli/T_ambi40.png,自我,Word,他人,Mismatch,j,FALSE,Formal,
,,,,,psychophysics,310,928085,0.0-8.0-0.1-0.148,675,,f,,,,,,,,,,,,,key,f,16.96466981,650.9524105,361.9047783,3_Stimuli/C_ambi40.png,他人,Image,自我,Mismatch,j,FALSE,Formal,
,,,,,psychophysics,311,929878,0.0-8.0-0.1-0.149,632,,f,,,,,,,,,,,,,key,f,16.65021495,650.9524105,361.9047783,3_Stimuli/T_ambi40.png,他人,Image,他人,Match,f,TRUE,Formal,
,,,,,psychophysics,312,931995,0.0-8.0-0.1-0.150,962,,f,,,,,,,,,,,,,key,f,16.65040476,650.9524105,361.9047783,3_Stimuli/T_ambi40.png,朋友,Image,他人,Mismatch,j,FALSE,Formal,
,,,,,psychophysics,313,933932,0.0-8.0-0.1-0.151,776,,f,,,,,,,,,,,,,key,f,16.65018261,650.9524105,361.9047783,3_Stimuli/C_ambi40.png,朋友,Image,自我,Mismatch,j,FALSE,Formal,
,,,,,psychophysics,314,935770,0.0-8.0-0.1-0.152,683,,f,,,,,,,,,,,,,key,f,16.65041284,650.9524105,361.9047783,3_Stimuli/C_ambi40.png,自我,Image,自我,Match,f,TRUE,Formal,
,,,,,psychophysics,315,937588,0.0-8.0-0.1-0.153,653,,f,,,,,,,,,,,,,key,f,16.65,650.9524105,361.9047783,3_Stimuli/T_ambi40.png,他人,Image,他人,Match,f,TRUE,Formal,
,,,,,psychophysics,316,939490,0.0-8.0-0.1-0.154,745,,j,,,,,,,,,,,,,key,j,16.65058407,650.9524105,361.9047783,3_Stimuli/T_ambi40.png,自我,Image,他人,Mismatch,j,TRUE,Formal,
,,,,,psychophysics,317,941476,0.0-8.0-0.1-0.155,824,,j,,,,,,,,,,,,,key,j,16.65039316,650.9524105,361.9047783,3_Stimuli/C_ambi40.png,他人,Word,自我,Mismatch,j,TRUE,Formal,
,,,,,psychophysics,318,943486,0.0-8.0-0.1-0.156,854,,f,,,,,,,,,,,,,key,f,16.64951667,650.9524105,361.9047783,3_Stimuli/C_ambi40.png,自我,Word,自我,Match,f,TRUE,Formal,
,,,,,psychophysics,319,945383,0.0-8.0-0.1-0.157,739,,j,,,,,,,,,,,,,key,j,16.65020354,650.9524105,361.9047783,3_Stimuli/C_ambi40.png,朋友,Word,自我,Mismatch,j,TRUE,Formal,
,,,,,psychophysics,320,947367,0.0-8.0-0.1-0.158,816,,f,,,,,,,,,,,,,key,f,16.6504661,650.9524105,361.9047783,3_Stimuli/C_ambi40.png,自我,Word,自我,Match,f,TRUE,Formal,
,,,,,psychophysics,321,949081,0.0-8.0-0.1-0.159,559,,f,,,,,,,,,,,,,key,f,16.65059406,650.9524105,361.9047783,3_Stimuli/S_ambi40.png,自我,Word,朋友,Mismatch,j,FALSE,Formal,
,,,,,psychophysics,322,951073,0.0-8.0-0.1-0.160,835,,j,,,,,,,,,,,,,key,j,16.65061345,650.9524105,361.9047783,3_Stimuli/S_ambi40.png,朋友,Image,朋友,Match,f,FALSE,Formal,
,,,,,psychophysics,323,953255,0.0-8.0-0.1-0.161,1024,,f,,,,,,,,,,,,,key,f,16.65025385,650.9524105,361.9047783,3_Stimuli/T_ambi40.png,他人,Word,他人,Match,f,TRUE,Formal,
,,,,,psychophysics,324,955175,0.0-8.0-0.1-0.162,757,,j,,,,,,,,,,,,,key,j,16.64950877,650.9524105,361.9047783,3_Stimuli/S_ambi40.png,他人,Image,朋友,Mismatch,j,TRUE,Formal,
,,,,,psychophysics,325,956981,0.0-8.0-0.1-0.163,645,,f,,,,,,,,,,,,,key,f,16.65052336,650.9524105,361.9047783,3_Stimuli/T_ambi40.png,他人,Word,他人,Match,f,TRUE,Formal,
,,,,,psychophysics,326,958885,0.0-8.0-0.1-0.164,743,,f,,,,,,,,,,,,,key,f,16.65046903,650.9524105,361.9047783,3_Stimuli/S_ambi40.png,朋友,Word,朋友,Match,f,TRUE,Formal,
,,,,,psychophysics,327,960915,0.0-8.0-0.1-0.165,878,,f,,,,,,,,,,,,,key,f,16.65034711,650.9524105,361.9047783,3_Stimuli/S_ambi40.png,他人,Word,朋友,Mismatch,j,FALSE,Formal,
,,,,,psychophysics,328,962868,0.0-8.0-0.1-0.166,790,,f,,,,,,,,,,,,,key,f,16.65062069,650.9524105,361.9047783,3_Stimuli/C_ambi40.png,自我,Image,自我,Match,f,TRUE,Formal,
,,,,,psychophysics,329,964609,0.0-8.0-0.1-0.167,584,,j,,,,,,,,,,,,,key,j,16.65043689,650.9524105,361.9047783,3_Stimuli/S_ambi40.png,自我,Image,朋友,Mismatch,j,TRUE,Formal,
,,,,,psychophysics,330,966748,0.0-8.0-0.1-0.168,976,,j,,,,,,,,,,,,,key,j,16.65053543,650.9524105,361.9047783,3_Stimuli/S_ambi40.png,朋友,Word,朋友,Match,f,FALSE,Formal,
,,,,,psychophysics,331,968848,0.0-8.0-0.1-0.169,945,,j,,,,,,,,,,,,,key,j,16.650448,650.9524105,361.9047783,3_Stimuli/C_ambi40.png,他人,Image,自我,Mismatch,j,TRUE,Formal,
,,,,,psychophysics,332,970657,0.0-8.0-0.1-0.170,655,,f,,,,,,,,,,,,,key,f,16.6502037,650.9524105,361.9047783,3_Stimuli/C_ambi40.png,自我,Image,自我,Match,f,TRUE,Formal,
,,,,,psychophysics,333,972830,0.0-8.0-0.1-0.171,1010,,f,,,,,,,,,,,,,key,f,16.6504186,650.9524105,361.9047783,3_Stimuli/T_ambi40.png,他人,Word,他人,Match,f,TRUE,Formal,
,,,,,psychophysics,334,975239,0.0-8.0-0.1-0.172,1246,,f,,,,,,,,,,,,,key,f,16.65044755,650.9524105,361.9047783,3_Stimuli/S_ambi40.png,朋友,Image,朋友,Match,f,TRUE,Formal,
,,,,,psychophysics,335,977172,0.0-8.0-0.1-0.173,775,,f,,,,,,,,,,,,,key,f,16.65136522,650.9524105,361.9047783,3_Stimuli/C_ambi40.png,自我,Word,自我,Match,f,TRUE,Formal,
,,,,,psychophysics,336,978961,0.0-8.0-0.1-0.174,633,,j,,,,,,,,,,,,,key,j,16.65043925,650.9524105,361.9047783,3_Stimuli/T_ambi40.png,他人,Image,他人,Match,f,FALSE,Formal,
,,,,,psychophysics,337,980819,0.0-8.0-0.1-0.175,699,,f,,,,,,,,,,,,,key,f,16.6504,650.9524105,361.9047783,3_Stimuli/T_ambi40.png,朋友,Word,他人,Mismatch,j,FALSE,Formal,
,,,,,psychophysics,338,982708,0.0-8.0-0.1-0.176,734,,j,,,,,,,,,,,,,key,j,16.6504375,650.9524105,361.9047783,3_Stimuli/C_ambi40.png,他人,Word,自我,Mismatch,j,TRUE,Formal,
,,,,,psychophysics,339,984655,0.0-8.0-0.1-0.177,783,,j,,,,,,,,,,,,,key,j,16.6504,650.9524105,361.9047783,3_Stimuli/C_ambi40.png,自我,Image,自我,Match,f,FALSE,Formal,
,,,,,psychophysics,340,986413,0.0-8.0-0.1-0.178,593,,j,,,,,,,,,,,,,key,j,16.65024038,650.9524105,361.9047783,3_Stimuli/C_ambi40.png,朋友,Image,自我,Mismatch,j,TRUE,Formal,
,,,,,psychophysics,341,988209,0.0-8.0-0.1-0.179,641,,j,,,,,,,,,,,,,key,j,16.65057009,650.9524105,361.9047783,3_Stimuli/T_ambi40.png,朋友,Image,他人,Mismatch,j,TRUE,Formal,
,,,,,psychophysics,342,989944,0.0-8.0-0.1-0.180,581,,j,,,,,,,,,,,,,key,j,16.97578218,650.9524105,361.9047783,3_Stimuli/T_ambi40.png,他人,Image,他人,Match,f,FALSE,Formal,
,,,,,psychophysics,343,992239,0.0-8.0-0.1-0.181,1143,,f,,,,,,,,,,,,,key,f,16.65044526,650.9524105,361.9047783,3_Stimuli/S_ambi40.png,自我,Image,朋友,Mismatch,j,FALSE,Formal,
,,,,,psychophysics,344,994265,0.0-8.0-0.1-0.182,871,,f,,,,,,,,,,,,,key,f,16.65021667,650.9524105,361.9047783,3_Stimuli/S_ambi40.png,他人,Word,朋友,Mismatch,j,FALSE,Formal,
,,,,,psychophysics,345,996204,0.0-8.0-0.1-0.183,777,,j,,,,,,,,,,,,,key,j,16.65033913,650.9524105,361.9047783,3_Stimuli/S_ambi40.png,自我,Word,朋友,Mismatch,j,TRUE,Formal,
,,,,,psychophysics,346,998412,0.0-8.0-0.1-0.184,1056,,f,,,,,,,,,,,,,key,f,16.6505303,650.9524105,361.9047783,3_Stimuli/S_ambi40.png,他人,Image,朋友,Mismatch,j,FALSE,Formal,
,,,,,psychophysics,347,1000436,0.0-8.0-0.1-0.185,867,,j,,,,,,,,,,,,,key,j,16.649775,650.9524105,361.9047783,3_Stimuli/S_ambi40.png,朋友,Image,朋友,Match,f,FALSE,Formal,
,,,,,psychophysics,348,1002209,0.0-8.0-0.1-0.186,615,,f,,,,,,,,,,,,,key,f,16.65161538,650.9524105,361.9047783,3_Stimuli/C_ambi40.png,自我,Word,自我,Match,f,TRUE,Formal,
,,,,,psychophysics,349,1004195,0.0-8.0-0.1-0.187,826,,j,,,,,,,,,,,,,key,j,16.65024576,650.9524105,361.9047783,3_Stimuli/T_ambi40.png,自我,Word,他人,Mismatch,j,TRUE,Formal,
,,,,,psychophysics,350,1006093,0.0-8.0-0.1-0.188,741,,f,,,,,,,,,,,,,key,f,16.6509292,650.9524105,361.9047783,3_Stimuli/T_ambi40.png,他人,Word,他人,Match,f,TRUE,Formal,
,,,,,psychophysics,351,1007998,0.0-8.0-0.1-0.189,747,,f,,,,,,,,,,,,,key,f,16.65010619,650.9524105,361.9047783,3_Stimuli/T_ambi40.png,自我,Image,他人,Mismatch,j,FALSE,Formal,
,,,,,psychophysics,352,1010016,0.0-8.0-0.1-0.190,866,,f,,,,,,,,,,,,,key,f,16.65045833,650.9524105,361.9047783,3_Stimuli/S_ambi40.png,朋友,Word,朋友,Match,f,TRUE,Formal,
,,,,,psychophysics,353,1011737,0.0-8.0-0.1-0.191,555,,j,,,,,,,,,,,,,key,j,16.65058824,650.9524105,361.9047783,3_Stimuli/C_ambi40.png,朋友,Word,自我,Mismatch,j,TRUE,Formal,
,,,,,psychophysics,354,1013671,0.0-8.0-0.1-0.192,780,,f,,,,,,,,,,,,,key,f,16.65032174,650.9524105,361.9047783,3_Stimuli/C_ambi40.png,他人,Word,自我,Mismatch,j,FALSE,Formal,
,,,,,psychophysics,355,1015531,0.0-8.0-0.1-0.193,703,,f,,,,,,,,,,,,,key,f,16.6501982,650.9524105,361.9047783,3_Stimuli/S_ambi40.png,朋友,Image,朋友,Match,f,TRUE,Formal,
,,,,,psychophysics,356,1017317,0.0-8.0-0.1-0.194,627,,j,,,,,,,,,,,,,key,j,16.65025472,650.9524105,361.9047783,3_Stimuli/S_ambi40.png,他人,Word,朋友,Mismatch,j,TRUE,Formal,
,,,,,psychophysics,357,1019082,0.0-8.0-0.1-0.195,611,,f,,,,,,,,,,,,,key,f,16.6503619,650.9524105,361.9047783,3_Stimuli/C_ambi40.png,自我,Image,自我,Match,f,TRUE,Formal,
,,,,,psychophysics,358,1020826,0.0-8.0-0.1-0.196,588,,f,,,,,,,,,,,,,key,f,16.65013462,650.9524105,361.9047783,3_Stimuli/C_ambi40.png,自我,Word,自我,Match,f,TRUE,Formal,
,,,,,psychophysics,359,1022603,0.0-8.0-0.1-0.197,618,,j,,,,,,,,,,,,,key,j,16.64999057,650.9524105,361.9047783,3_Stimuli/S_ambi40.png,他人,Image,朋友,Mismatch,j,TRUE,Formal,
,,,,,psychophysics,360,1024571,0.0-8.0-0.1-0.198,787,,j,,,,,,,,,,,,,key,j,16.65056034,650.9524105,361.9047783,3_Stimuli/T_ambi40.png,自我,Image,他人,Mismatch,j,TRUE,Formal,
,,,,,psychophysics,361,1026507,0.0-8.0-0.1-0.199,778,,j,,,,,,,,,,,,,key,j,16.64993913,650.9524105,361.9047783,3_Stimuli/T_ambi40.png,他人,Word,他人,Match,f,FALSE,Formal,
,,,,,psychophysics,362,1028375,0.0-8.0-0.1-0.200,715,,f,,,,,,,,,,,,,key,f,16.65074775,650.9524105,361.9047783,3_Stimuli/S_ambi40.png,朋友,Word,朋友,Match,f,TRUE,Formal,
,,,,,psychophysics,363,1030504,0.0-8.0-0.1-0.201,975,,f,,,,,,,,,,,,,key,f,16.65046032,650.9524105,361.9047783,3_Stimuli/T_ambi40.png,他人,Image,他人,Match,f,TRUE,Formal,
,,,,,psychophysics,364,1032437,0.0-8.0-0.1-0.202,778,,j,,,,,,,,,,,,,key,j,16.65041739,650.9524105,361.9047783,3_Stimuli/S_ambi40.png,自我,Image,朋友,Mismatch,j,TRUE,Formal,
,,,,,psychophysics,365,1034169,0.0-8.0-0.1-0.203,579,,f,,,,,,,,,,,,,key,f,16.65178641,650.9524105,361.9047783,3_Stimuli/T_ambi40.png,朋友,Word,他人,Mismatch,j,FALSE,Formal,
,,,,,psychophysics,366,1035999,0.0-8.0-0.1-0.204,675,,j,,,,,,,,,,,,,key,j,16.65102778,650.9524105,361.9047783,3_Stimuli/T_ambi40.png,朋友,Image,他人,Mismatch,j,TRUE,Formal,
,,,,,psychophysics,367,1037898,0.0-8.0-0.1-0.205,743,,f,,,,,,,,,,,,,key,f,16.65030088,650.9524105,361.9047783,3_Stimuli/T_ambi40.png,他人,Image,他人,Match,f,TRUE,Formal,
,,,,,psychophysics,368,1039653,0.0-8.0-0.1-0.206,604,,f,,,,,,,,,,,,,key,f,16.81025962,650.9524105,361.9047783,3_Stimuli/S_ambi40.png,朋友,Word,朋友,Match,f,TRUE,Formal,
,,,,,psychophysics,369,1042363,0.0-8.0-0.1-0.207,null,,null,,,,,,,,,,,,,key,null,16.6503354,650.9524105,361.9047783,3_Stimuli/C_ambi40.png,自我,Image,自我,Match,f,FALSE,Formal,
,,,,,psychophysics,370,1044549,0.0-8.0-0.1-0.208,1032,,j,,,,,,,,,,,,,key,j,16.65039231,650.9524105,361.9047783,3_Stimuli/C_ambi40.png,他人,Image,自我,Mismatch,j,TRUE,Formal,
,,,,,psychophysics,371,1046448,0.0-8.0-0.1-0.209,736,,f,,,,,,,,,,,,,key,f,16.65033628,650.9524105,361.9047783,3_Stimuli/S_ambi40.png,朋友,Image,朋友,Match,f,TRUE,Formal,
,,,,,psychophysics,372,1048097,0.0-8.0-0.1-0.210,497,,j,,,,,,,,,,,,,key,j,16.6505102,650.9524105,361.9047783,3_Stimuli/C_ambi40.png,朋友,Word,自我,Mismatch,j,TRUE,Formal,
,,,,,psychophysics,373,1049817,0.0-8.0-0.1-0.211,564,,f,,,,,,,,,,,,,key,f,16.65012745,650.9524105,361.9047783,3_Stimuli/T_ambi40.png,自我,Word,他人,Mismatch,j,FALSE,Formal,
,,,,,psychophysics,374,1052020,0.0-8.0-0.1-0.212,1048,,j,,,,,,,,,,,,,key,j,16.64942748,650.9524105,361.9047783,3_Stimuli/C_ambi40.png,朋友,Image,自我,Mismatch,j,TRUE,Formal,
,,,,,psychophysics,375,1053890,0.0-8.0-0.1-0.213,716,,j,,,,,,,,,,,,,key,j,16.65041818,650.9524105,361.9047783,3_Stimuli/S_ambi40.png,自我,Word,朋友,Mismatch,j,TRUE,Formal,
,,,,,psychophysics,376,1055806,0.0-8.0-0.1-0.214,758,,f,,,,,,,,,,,,,key,f,16.65022807,650.9524105,361.9047783,3_Stimuli/T_ambi40.png,他人,Word,他人,Match,f,TRUE,Formal,
,,,,,psychophysics,377,1057775,0.0-8.0-0.1-0.215,806,,f,,,,,,,,,,,,,key,f,16.65031624,650.9524105,361.9047783,3_Stimuli/C_ambi40.png,自我,Word,自我,Match,f,TRUE,Formal,
,,,,,psychophysics,378,1059535,0.0-8.0-0.1-0.216,604,,j,,,,,,,,,,,,,key,j,16.6504381,650.9524105,361.9047783,3_Stimuli/T_ambi40.png,朋友,Image,他人,Mismatch,j,TRUE,Formal,
,,,,,psychophysics,379,1061405,0.0-8.0-0.1-0.217,712,,f,,,,,,,,,,,,,key,f,16.65082883,650.9524105,361.9047783,3_Stimuli/T_ambi40.png,他人,Word,他人,Match,f,TRUE,Formal,
,,,,,psychophysics,380,1063199,0.0-8.0-0.1-0.218,640,,f,,,,,,,,,,,,,key,f,16.64988785,650.9524105,361.9047783,3_Stimuli/C_ambi40.png,自我,Word,自我,Match,f,TRUE,Formal,
,,,,,psychophysics,381,1064952,0.0-8.0-0.1-0.219,594,,j,,,,,,,,,,,,,key,j,16.64973077,650.9524105,361.9047783,3_Stimuli/T_ambi40.png,朋友,Word,他人,Mismatch,j,TRUE,Formal,
,,,,,psychophysics,382,1066682,0.0-8.0-0.1-0.220,575,,f,,,,,,,,,,,,,key,f,16.65065049,650.9524105,361.9047783,3_Stimuli/C_ambi40.png,朋友,Image,自我,Mismatch,j,FALSE,Formal,
,,,,,psychophysics,383,1068419,0.0-8.0-0.1-0.221,581,,f,,,,,,,,,,,,,key,f,16.65054369,650.9524105,361.9047783,3_Stimuli/S_ambi40.png,自我,Image,朋友,Mismatch,j,FALSE,Formal,
,,,,,psychophysics,384,1070373,0.0-8.0-0.1-0.222,800,,j,,,,,,,,,,,,,key,j,16.6505431,650.9524105,361.9047783,3_Stimuli/T_ambi40.png,自我,Image,他人,Mismatch,j,TRUE,Formal,
,,,,,psychophysics,385,1072344,0.0-8.0-0.1-0.223,818,,j,,,,,,,,,,,,,key,j,16.6505812,650.9524105,361.9047783,3_Stimuli/C_ambi40.png,朋友,Word,自我,Mismatch,j,TRUE,Formal,
,,,,,psychophysics,386,1074173,0.0-8.0-0.1-0.224,675,,j,,,,,,,,,,,,,key,j,16.65018349,650.9524105,361.9047783,3_Stimuli/T_ambi40.png,自我,Word,他人,Mismatch,j,TRUE,Formal,
,,,,,psychophysics,387,1076113,0.0-8.0-0.1-0.225,782,,f,,,,,,,,,,,,,key,f,16.65053913,650.9524105,361.9047783,3_Stimuli/C_ambi40.png,自我,Image,自我,Match,f,TRUE,Formal,
,,,,,psychophysics,388,1077975,0.0-8.0-0.1-0.226,697,,j,,,,,,,,,,,,,key,j,16.65008182,650.9524105,361.9047783,3_Stimuli/C_ambi40.png,他人,Image,自我,Mismatch,j,TRUE,Formal,
,,,,,psychophysics,389,1080181,0.0-8.0-0.1-0.227,1054,,j,,,,,,,,,,,,,key,j,16.65034091,650.9524105,361.9047783,3_Stimuli/S_ambi40.png,自我,Word,朋友,Mismatch,j,TRUE,Formal,
,,,,,psychophysics,390,1081920,0.0-8.0-0.1-0.228,582,,f,,,,,,,,,,,,,key,f,16.65007767,650.9524105,361.9047783,3_Stimuli/C_ambi40.png,自我,Word,自我,Match,f,TRUE,Formal,
,,,,,psychophysics,391,1083730,0.0-8.0-0.1-0.229,653,,j,,,,,,,,,,,,,key,j,16.65048148,650.9524105,361.9047783,3_Stimuli/C_ambi40.png,他人,Word,自我,Mismatch,j,TRUE,Formal,
,,,,,psychophysics,392,1085660,0.0-8.0-0.1-0.230,774,,f,,,,,,,,,,,,,key,f,16.6506087,650.9524105,361.9047783,3_Stimuli/S_ambi40.png,朋友,Image,朋友,Match,f,TRUE,Formal,
,,,,,psychophysics,393,1087342,0.0-8.0-0.1-0.231,525,,f,,,,,,,,,,,,,key,f,16.65012,650.9524105,361.9047783,3_Stimuli/S_ambi40.png,朋友,Word,朋友,Match,f,TRUE,Formal,
,,,,,psychophysics,394,1089057,0.0-8.0-0.1-0.232,560,,j,,,,,,,,,,,,,key,j,16.65131373,650.9524105,361.9047783,3_Stimuli/S_ambi40.png,他人,Word,朋友,Mismatch,j,TRUE,Formal,
,,,,,psychophysics,395,1090736,0.0-8.0-0.1-0.233,514,,f,,,,,,,,,,,,,key,f,16.65,650.9524105,361.9047783,3_Stimuli/S_ambi40.png,朋友,Image,朋友,Match,f,TRUE,Formal,
,,,,,psychophysics,396,1092442,0.0-8.0-0.1-0.234,544,,f,,,,,,,,,,,,,key,f,16.65054455,650.9524105,361.9047783,3_Stimuli/S_ambi40.png,朋友,Word,朋友,Match,f,TRUE,Formal,
,,,,,psychophysics,397,1094121,0.0-8.0-0.1-0.235,518,,j,,,,,,,,,,,,,key,j,16.65015,650.9524105,361.9047783,3_Stimuli/T_ambi40.png,他人,Word,他人,Match,f,FALSE,Formal,
,,,,,psychophysics,398,1095729,0.0-8.0-0.1-0.236,451,,f,,,,,,,,,,,,,key,f,16.65108333,650.9524105,361.9047783,3_Stimuli/T_ambi40.png,他人,Image,他人,Match,f,TRUE,Formal,
,,,,,psychophysics,399,1097321,0.0-8.0-0.1-0.237,428,,f,,,,,,,,,,,,,key,f,16.64997872,650.9524105,361.9047783,3_Stimuli/T_ambi40.png,他人,Image,他人,Match,f,TRUE,Formal,
,,,,,psychophysics,400,1098927,0.0-8.0-0.1-0.238,447,,f,,,,,,,,,,,,,key,f,16.65075789,650.9524105,361.9047783,3_Stimuli/S_ambi40.png,他人,Image,朋友,Mismatch,j,FALSE,Formal,
,,,,,psychophysics,401,1100728,0.0-8.0-0.1-0.239,634,,f,,,,,,,,,,,,,key,f,16.65065421,650.9524105,361.9047783,3_Stimuli/C_ambi40.png,自我,Image,自我,Match,f,TRUE,Formal,
,,,,,html-keyboard-response,402,1103560,0.0-8.0-1.1,2831,<style>.context{color:white; font-size: 35px; line-height:40px}</style>                        <div><p class='context'>您正确回答了76% 的试次。</p><p class='context'>您的平均反应时为708毫秒。</p><p> <div style = 'color: green'><按任意键进入休息></div></p>, ,,,,,,,,,,,,,,,,,,,,,,,,,,
,,,,,html-button-response,403,1135441,0.0-8.0-2.1,31874,"
                  <p>您当前还剩余4组实验</p>
                  <p>现在是休息时间，当您结束休息后，您可以点击 结束休息 按钮 继续</p>
                  <p>建议休息时间还剩余<span id=""iii"">60</span>秒</p>",0,,,,,,,,,,,,,,,,,,,,,,,,,,
,,,,,psychophysics,404,1137311,0.0-8.0-0.2-0.240,712,,f,,,,,,,,,,,,,key,f,16.64668468,650.9524105,361.9047783,3_Stimuli/C_ambi40.png,自我,Word,自我,Match,f,TRUE,Formal,
,,,,,psychophysics,405,1139059,0.0-8.0-0.2-0.241,592,,j,,,,,,,,,,,,,key,j,16.65029808,650.9524105,361.9047783,3_Stimuli/S_ambi40.png,朋友,Image,朋友,Match,f,FALSE,Formal,
,,,,,psychophysics,406,1140905,0.0-8.0-0.2-0.242,694,,j,,,,,,,,,,,,,key,j,16.64974545,650.9524105,361.9047783,3_Stimuli/C_ambi40.png,朋友,Word,自我,Mismatch,j,TRUE,Formal,
,,,,,psychophysics,407,1142607,0.0-8.0-0.2-0.243,542,,f,,,,,,,,,,,,,key,f,16.6509604,650.9524105,361.9047783,3_Stimuli/S_ambi40.png,朋友,Image,朋友,Match,f,TRUE,Formal,
,,,,,psychophysics,408,1144286,0.0-8.0-0.2-0.244,522,,j,,,,,,,,,,,,,key,j,16.65036,650.9524105,361.9047783,3_Stimuli/T_ambi40.png,朋友,Word,他人,Mismatch,j,TRUE,Formal,
,,,,,psychophysics,409,1145873,0.0-8.0-0.2-0.245,420,,f,,,,,,,,,,,,,key,f,16.83153261,650.9524105,361.9047783,3_Stimuli/T_ambi40.png,他人,Image,他人,Match,f,TRUE,Formal,
,,,,,psychophysics,410,1147414,0.0-8.0-0.2-0.246,377,,f,,,,,,,,,,,,,key,f,16.65040217,650.9524105,361.9047783,3_Stimuli/C_ambi40.png,他人,Word,自我,Mismatch,j,FALSE,Formal,
,,,,,psychophysics,411,1149187,0.0-8.0-0.2-0.247,604,,j,,,,,,,,,,,,,key,j,16.65032381,650.9524105,361.9047783,3_Stimuli/S_ambi40.png,他人,Image,朋友,Mismatch,j,TRUE,Formal,
,,,,,psychophysics,412,1151065,0.0-8.0-0.2-0.248,723,,j,,,,,,,,,,,,,key,j,16.65018018,650.9524105,361.9047783,3_Stimuli/T_ambi40.png,自我,Word,他人,Mismatch,j,TRUE,Formal,
,,,,,psychophysics,413,1152852,0.0-8.0-0.2-0.249,630,,f,,,,,,,,,,,,,key,f,16.65024528,650.9524105,361.9047783,3_Stimuli/C_ambi40.png,朋友,Image,自我,Mismatch,j,FALSE,Formal,
,,,,,psychophysics,414,1154726,0.0-8.0-0.2-0.250,722,,f,,,,,,,,,,,,,key,f,16.6504375,650.9524105,361.9047783,3_Stimuli/T_ambi40.png,他人,Image,他人,Match,f,TRUE,Formal,
,,,,,psychophysics,415,1156746,0.0-8.0-0.2-0.251,858,,j,,,,,,,,,,,,,key,j,16.65045833,650.9524105,361.9047783,3_Stimuli/S_ambi40.png,他人,Word,朋友,Mismatch,j,TRUE,Formal,
,,,,,psychophysics,416,1158662,0.0-8.0-0.2-0.252,760,,j,,,,,,,,,,,,,key,j,16.6502807,650.9524105,361.9047783,3_Stimuli/S_ambi40.png,自我,Image,朋友,Mismatch,j,TRUE,Formal,
,,,,,psychophysics,417,1160293,0.0-8.0-0.2-0.253,472,,f,,,,,,,,,,,,,key,f,16.6504433,650.9524105,361.9047783,3_Stimuli/C_ambi40.png,自我,Image,自我,Match,f,TRUE,Formal,
,,,,,psychophysics,418,1162047,0.0-8.0-0.2-0.254,599,,f,,,,,,,,,,,,,key,f,16.649875,650.9524105,361.9047783,3_Stimuli/T_ambi40.png,他人,Word,他人,Match,f,TRUE,Formal,
,,,,,psychophysics,419,1163670,0.0-8.0-0.2-0.255,468,,f,,,,,,,,,,,,,key,f,16.65051042,650.9524105,361.9047783,3_Stimuli/T_ambi40.png,他人,Word,他人,Match,f,TRUE,Formal,
,,,,,psychophysics,420,1165472,0.0-8.0-0.2-0.256,643,,f,,,,,,,,,,,,,key,f,16.65053271,650.9524105,361.9047783,3_Stimuli/S_ambi40.png,自我,Word,朋友,Mismatch,j,FALSE,Formal,
,,,,,psychophysics,421,1167499,0.0-8.0-0.2-0.257,874,,j,,,,,,,,,,,,,key,j,16.65005785,650.9524105,361.9047783,3_Stimuli/T_ambi40.png,朋友,Image,他人,Mismatch,j,TRUE,Formal,
,,,,,psychophysics,422,1169201,0.0-8.0-0.2-0.258,544,,f,,,,,,,,,,,,,key,f,16.65039604,650.9524105,361.9047783,3_Stimuli/C_ambi40.png,自我,Image,自我,Match,f,TRUE,Formal,
,,,,,psychophysics,423,1171009,0.0-8.0-0.2-0.259,651,,j,,,,,,,,,,,,,key,j,16.65034259,650.9524105,361.9047783,3_Stimuli/T_ambi40.png,自我,Image,他人,Mismatch,j,TRUE,Formal,
,,,,,psychophysics,424,1172717,0.0-8.0-0.2-0.260,550,,f,,,,,,,,,,,,,key,f,16.65028713,650.9524105,361.9047783,3_Stimuli/C_ambi40.png,他人,Image,自我,Mismatch,j,FALSE,Formal,
,,,,,psychophysics,425,1174608,0.0-8.0-0.2-0.261,740,,f,,,,,,,,,,,,,key,f,16.65084071,650.9524105,361.9047783,3_Stimuli/S_ambi40.png,朋友,Word,朋友,Match,f,TRUE,Formal,
,,,,,psychophysics,426,1176612,0.0-8.0-0.2-0.262,846,,f,,,,,,,,,,,,,key,f,16.65043697,650.9524105,361.9047783,3_Stimuli/C_ambi40.png,自我,Word,自我,Match,f,TRUE,Formal,
,,,,,psychophysics,427,1178336,0.0-8.0-0.2-0.263,568,,j,,,,,,,,,,,,,key,j,16.6502233,650.9524105,361.9047783,3_Stimuli/S_ambi40.png,朋友,Word,朋友,Match,f,FALSE,Formal,
,,,,,psychophysics,428,1180104,0.0-8.0-0.2-0.264,616,,j,,,,,,,,,,,,,key,j,16.6502,650.9524105,361.9047783,3_Stimuli/C_ambi40.png,自我,Image,自我,Match,f,FALSE,Formal,
,,,,,psychophysics,429,1181842,0.0-8.0-0.2-0.265,583,,f,,,,,,,,,,,,,key,f,16.65073786,650.9524105,361.9047783,3_Stimuli/T_ambi40.png,他人,Word,他人,Match,f,TRUE,Formal,
,,,,,psychophysics,430,1183759,0.0-8.0-0.2-0.266,756,,f,,,,,,,,,,,,,key,f,16.65122124,650.9524105,361.9047783,3_Stimuli/S_ambi40.png,朋友,Word,朋友,Match,f,TRUE,Formal,
,,,,,psychophysics,431,1185443,0.0-8.0-0.2-0.267,525,,f,,,,,,,,,,,,,key,f,16.65036,650.9524105,361.9047783,3_Stimuli/S_ambi40.png,自我,Image,朋友,Mismatch,j,FALSE,Formal,
,,,,,psychophysics,432,1187492,0.0-8.0-0.2-0.268,885,,f,,,,,,,,,,,,,key,f,16.65048361,650.9524105,361.9047783,3_Stimuli/C_ambi40.png,朋友,Word,自我,Mismatch,j,FALSE,Formal,
,,,,,psychophysics,433,1189540,0.0-8.0-0.2-0.269,885,,j,,,,,,,,,,,,,key,j,16.65052459,650.9524105,361.9047783,3_Stimuli/C_ambi40.png,朋友,Image,自我,Mismatch,j,TRUE,Formal,
,,,,,psychophysics,434,1191609,0.0-8.0-0.2-0.270,917,,j,,,,,,,,,,,,,key,j,16.6504065,650.9524105,361.9047783,3_Stimuli/S_ambi40.png,他人,Word,朋友,Mismatch,j,TRUE,Formal,
,,,,,psychophysics,435,1193490,0.0-8.0-0.2-0.271,724,,j,,,,,,,,,,,,,key,j,16.6501875,650.9524105,361.9047783,3_Stimuli/C_ambi40.png,自我,Image,自我,Match,f,FALSE,Formal,
,,,,,psychophysics,436,1195210,0.0-8.0-0.2-0.272,563,,j,,,,,,,,,,,,,key,j,16.65202941,650.9524105,361.9047783,3_Stimuli/S_ambi40.png,他人,Image,朋友,Mismatch,j,TRUE,Formal,
,,,,,psychophysics,437,1197151,0.0-8.0-0.2-0.273,789,,f,,,,,,,,,,,,,key,f,16.65004348,650.9524105,361.9047783,3_Stimuli/S_ambi40.png,朋友,Word,朋友,Match,f,TRUE,Formal,
,,,,,psychophysics,438,1198931,0.0-8.0-0.2-0.274,621,,f,,,,,,,,,,,,,key,f,16.65020952,650.9524105,361.9047783,3_Stimuli/C_ambi40.png,自我,Word,自我,Match,f,TRUE,Formal,
,,,,,psychophysics,439,1200661,0.0-8.0-0.2-0.275,542,,j,,,,,,,,,,,,,key,j,16.65057843,650.9524105,361.9047783,3_Stimuli/T_ambi40.png,自我,Word,他人,Mismatch,j,TRUE,Formal,
,,,,,psychophysics,440,1202867,0.0-8.0-0.2-0.276,1047,,f,,,,,,,,,,,,,key,f,16.65022901,650.9524105,361.9047783,3_Stimuli/T_ambi40.png,自我,Image,他人,Mismatch,j,FALSE,Formal,
,,,,,psychophysics,441,1204743,0.0-8.0-0.2-0.277,722,,j,,,,,,,,,,,,,key,j,16.65030357,650.9524105,361.9047783,3_Stimuli/S_ambi40.png,自我,Word,朋友,Mismatch,j,TRUE,Formal,
,,,,,psychophysics,442,1206443,0.0-8.0-0.2-0.278,540,,j,,,,,,,,,,,,,key,j,16.65009901,650.9524105,361.9047783,3_Stimuli/C_ambi40.png,他人,Image,自我,Mismatch,j,TRUE,Formal,
,,,,,psychophysics,443,1208788,0.0-8.0-0.2-0.279,1193,,f,,,,,,,,,,,,,key,f,16.65043571,650.9524105,361.9047783,3_Stimuli/C_ambi40.png,自我,Word,自我,Match,f,TRUE,Formal,
,,,,,psychophysics,444,1210454,0.0-8.0-0.2-0.280,509,,j,,,,,,,,,,,,,key,j,16.65006061,650.9524105,361.9047783,3_Stimuli/S_ambi40.png,朋友,Image,朋友,Match,f,FALSE,Formal,
,,,,,psychophysics,445,1212073,0.0-8.0-0.2-0.281,462,,f,,,,,,,,,,,,,key,f,16.64983333,650.9524105,361.9047783,3_Stimuli/S_ambi40.png,朋友,Image,朋友,Match,f,TRUE,Formal,
,,,,,psychophysics,446,1213851,0.0-8.0-0.2-0.282,620,,f,,,,,,,,,,,,,key,f,16.65022642,650.9524105,361.9047783,3_Stimuli/T_ambi40.png,他人,Word,他人,Match,f,TRUE,Formal,
,,,,,psychophysics,447,1215609,0.0-8.0-0.2-0.283,603,,j,,,,,,,,,,,,,key,j,16.65034615,650.9524105,361.9047783,3_Stimuli/C_ambi40.png,他人,Word,自我,Mismatch,j,TRUE,Formal,
,,,,,psychophysics,448,1217553,0.0-8.0-0.2-0.284,793,,j,,,,,,,,,,,,,key,j,16.65046087,650.9524105,361.9047783,3_Stimuli/T_ambi40.png,朋友,Image,他人,Mismatch,j,TRUE,Formal,
,,,,,psychophysics,449,1219231,0.0-8.0-0.2-0.285,526,,f,,,,,,,,,,,,,key,f,16.64975,650.9524105,361.9047783,3_Stimuli/T_ambi40.png,他人,Image,他人,Match,f,TRUE,Formal,
,,,,,psychophysics,450,1221184,0.0-8.0-0.2-0.286,800,,j,,,,,,,,,,,,,key,j,16.65069828,650.9524105,361.9047783,3_Stimuli/T_ambi40.png,朋友,Word,他人,Mismatch,j,TRUE,Formal,
,,,,,psychophysics,451,1222941,0.0-8.0-0.2-0.287,601,,f,,,,,,,,,,,,,key,f,16.65079048,650.9524105,361.9047783,3_Stimuli/T_ambi40.png,他人,Image,他人,Match,f,TRUE,Formal,
,,,,,psychophysics,452,1224631,0.0-8.0-0.2-0.288,529,,f,,,,,,,,,,,,,key,f,16.65031,650.9524105,361.9047783,3_Stimuli/C_ambi40.png,自我,Word,自我,Match,f,TRUE,Formal,
,,,,,psychophysics,453,1226508,0.0-8.0-0.2-0.289,720,,j,,,,,,,,,,,,,key,j,16.64988393,650.9524105,361.9047783,3_Stimuli/T_ambi40.png,他人,Image,他人,Match,f,FALSE,Formal,
,,,,,psychophysics,454,1228292,0.0-8.0-0.2-0.290,625,,j,,,,,,,,,,,,,key,j,16.65039623,650.9524105,361.9047783,3_Stimuli/T_ambi40.png,朋友,Word,他人,Mismatch,j,TRUE,Formal,
,,,,,psychophysics,455,1230053,0.0-8.0-0.2-0.291,605,,f,,,,,,,,,,,,,key,f,16.65041748,650.9524105,361.9047783,3_Stimuli/C_ambi40.png,自我,Image,自我,Match,f,TRUE,Formal,
,,,,,psychophysics,456,1231726,0.0-8.0-0.2-0.292,511,,f,,,,,,,,,,,,,key,f,16.65017,650.9524105,361.9047783,3_Stimuli/S_ambi40.png,朋友,Word,朋友,Match,f,TRUE,Formal,
,,,,,psychophysics,457,1233464,0.0-8.0-0.2-0.293,585,,j,,,,,,,,,,,,,key,j,16.65033654,650.9524105,361.9047783,3_Stimuli/S_ambi40.png,自我,Image,朋友,Mismatch,j,TRUE,Formal,
,,,,,psychophysics,458,1235566,0.0-8.0-0.2-0.294,944,,j,,,,,,,,,,,,,key,j,16.650264,650.9524105,361.9047783,3_Stimuli/S_ambi40.png,他人,Word,朋友,Mismatch,j,TRUE,Formal,
,,,,,psychophysics,459,1237402,0.0-8.0-0.2-0.295,679,,f,,,,,,,,,,,,,key,f,16.65052294,650.9524105,361.9047783,3_Stimuli/T_ambi40.png,他人,Word,他人,Match,f,TRUE,Formal,
,,,,,psychophysics,460,1239260,0.0-8.0-0.2-0.296,701,,j,,,,,,,,,,,,,key,j,16.65025225,650.9524105,361.9047783,3_Stimuli/C_ambi40.png,他人,Word,自我,Mismatch,j,TRUE,Formal,
,,,,,psychophysics,461,1241377,0.0-8.0-0.2-0.297,960,,f,,,,,,,,,,,,,key,f,16.65046032,650.9524105,361.9047783,3_Stimuli/S_ambi40.png,朋友,Image,朋友,Match,f,TRUE,Formal,
,,,,,psychophysics,462,1243146,0.0-8.0-0.2-0.298,608,,j,,,,,,,,,,,,,key,j,16.65041905,650.9524105,361.9047783,3_Stimuli/C_ambi40.png,朋友,Image,自我,Mismatch,j,TRUE,Formal,
,,,,,psychophysics,463,1244889,0.0-8.0-0.2-0.299,590,,f,,,,,,,,,,,,,key,f,16.65048544,650.9524105,361.9047783,3_Stimuli/S_ambi40.png,朋友,Image,朋友,Match,f,TRUE,Formal,
,,,,,psychophysics,464,1246791,0.0-8.0-0.2-0.300,741,,j,,,,,,,,,,,,,key,j,16.65024779,650.9524105,361.9047783,3_Stimuli/S_ambi40.png,他人,Image,朋友,Mismatch,j,TRUE,Formal,
,,,,,psychophysics,465,1248432,0.0-8.0-0.2-0.301,484,,f,,,,,,,,,,,,,key,f,16.65081633,650.9524105,361.9047783,3_Stimuli/C_ambi40.png,朋友,Word,自我,Mismatch,j,FALSE,Formal,
,,,,,psychophysics,466,1250147,0.0-8.0-0.2-0.302,551,,j,,,,,,,,,,,,,key,j,16.65014851,650.9524105,361.9047783,3_Stimuli/S_ambi40.png,自我,Word,朋友,Mismatch,j,TRUE,Formal,
,,,,,psychophysics,467,1251879,0.0-8.0-0.2-0.303,570,,f,,,,,,,,,,,,,key,f,16.65051456,650.9524105,361.9047783,3_Stimuli/S_ambi40.png,朋友,Word,朋友,Match,f,TRUE,Formal,
,,,,,psychophysics,468,1253866,0.0-8.0-0.2-0.304,832,,j,,,,,,,,,,,,,key,j,16.65088136,650.9524105,361.9047783,3_Stimuli/T_ambi40.png,自我,Image,他人,Mismatch,j,TRUE,Formal,
,,,,,psychophysics,469,1255662,0.0-8.0-0.2-0.305,639,,f,,,,,,,,,,,,,key,f,16.65026168,650.9524105,361.9047783,3_Stimuli/C_ambi40.png,自我,Image,自我,Match,f,TRUE,Formal,
,,,,,psychophysics,470,1257388,0.0-8.0-0.2-0.306,567,,j,,,,,,,,,,,,,key,j,16.65033333,650.9524105,361.9047783,3_Stimuli/T_ambi40.png,自我,Word,他人,Mismatch,j,TRUE,Formal,
,,,,,psychophysics,471,1259321,0.0-8.0-0.2-0.307,778,,f,,,,,,,,,,,,,key,f,16.65042105,650.9524105,361.9047783,3_Stimuli/T_ambi40.png,朋友,Image,他人,Mismatch,j,FALSE,Formal,
,,,,,psychophysics,472,1261183,0.0-8.0-0.2-0.308,698,,f,,,,,,,,,,,,,key,f,16.65048182,650.9524105,361.9047783,3_Stimuli/T_ambi40.png,他人,Word,他人,Match,f,TRUE,Formal,
,,,,,psychophysics,473,1263205,0.0-8.0-0.2-0.309,869,,f,,,,,,,,,,,,,key,f,16.65034167,650.9524105,361.9047783,3_Stimuli/C_ambi40.png,自我,Word,自我,Match,f,TRUE,Formal,
,,,,,psychophysics,474,1264972,0.0-8.0-0.2-0.310,611,,j,,,,,,,,,,,,,key,j,16.65030476,650.9524105,361.9047783,3_Stimuli/C_ambi40.png,他人,Image,自我,Mismatch,j,TRUE,Formal,
,,,,,psychophysics,475,1267091,0.0-8.0-0.2-0.311,961,,f,,,,,,,,,,,,,key,f,16.783464,650.9524105,361.9047783,3_Stimuli/T_ambi40.png,他人,Image,他人,Match,f,TRUE,Formal,
,,,,,psychophysics,476,1269269,0.0-8.0-0.2-0.312,1027,,f,,,,,,,,,,,,,key,f,16.65031008,650.9524105,361.9047783,3_Stimuli/C_ambi40.png,朋友,Image,自我,Mismatch,j,FALSE,Formal,
,,,,,psychophysics,477,1271150,0.0-8.0-0.2-0.313,727,,j,,,,,,,,,,,,,key,j,16.65083929,650.9524105,361.9047783,3_Stimuli/S_ambi40.png,朋友,Image,朋友,Match,f,FALSE,Formal,
,,,,,psychophysics,478,1273067,0.0-8.0-0.2-0.314,760,,j,,,,,,,,,,,,,key,j,16.65027193,650.9524105,361.9047783,3_Stimuli/S_ambi40.png,自我,Word,朋友,Mismatch,j,TRUE,Formal,
,,,,,psychophysics,479,1275182,0.0-8.0-0.2-0.315,961,,f,,,,,,,,,,,,,key,f,16.65049206,650.9524105,361.9047783,3_Stimuli/T_ambi40.png,他人,Image,他人,Match,f,TRUE,Formal,
,,,,,psychophysics,480,1277180,0.0-8.0-0.2-0.316,844,,j,,,,,,,,,,,,,key,j,16.65048739,650.9524105,361.9047783,3_Stimuli/S_ambi40.png,他人,Image,朋友,Mismatch,j,TRUE,Formal,
,,,,,psychophysics,481,1278939,0.0-8.0-0.2-0.317,608,,f,,,,,,,,,,,,,key,f,16.65038095,650.9524105,361.9047783,3_Stimuli/C_ambi40.png,自我,Word,自我,Match,f,TRUE,Formal,
,,,,,psychophysics,482,1280927,0.0-8.0-0.2-0.318,834,,f,,,,,,,,,,,,,key,f,16.65097458,650.9524105,361.9047783,3_Stimuli/S_ambi40.png,朋友,Word,朋友,Match,f,TRUE,Formal,
,,,,,psychophysics,483,1282801,0.0-8.0-0.2-0.319,701,,j,,,,,,,,,,,,,key,j,16.65044144,650.9524105,361.9047783,3_Stimuli/C_ambi40.png,他人,Word,自我,Mismatch,j,TRUE,Formal,
,,,,,psychophysics,484,1284733,0.0-8.0-0.2-0.320,775,,j,,,,,,,,,,,,,key,j,16.65017391,650.9524105,361.9047783,3_Stimuli/C_ambi40.png,他人,Image,自我,Mismatch,j,TRUE,Formal,
,,,,,psychophysics,485,1286704,0.0-8.0-0.2-0.321,817,,j,,,,,,,,,,,,,key,j,16.65047009,650.9524105,361.9047783,3_Stimuli/T_ambi40.png,自我,Word,他人,Mismatch,j,TRUE,Formal,
,,,,,psychophysics,486,1288834,0.0-8.0-0.2-0.322,973,,f,,,,,,,,,,,,,key,f,16.65034646,650.9524105,361.9047783,3_Stimuli/T_ambi40.png,他人,Image,他人,Match,f,TRUE,Formal,
,,,,,psychophysics,487,1290610,0.0-8.0-0.2-0.323,624,,j,,,,,,,,,,,,,key,j,16.65041509,650.9524105,361.9047783,3_Stimuli/S_ambi40.png,朋友,Image,朋友,Match,f,FALSE,Formal,
,,,,,psychophysics,488,1292472,0.0-8.0-0.2-0.324,709,,j,,,,,,,,,,,,,key,j,16.6507027,650.9524105,361.9047783,3_Stimuli/S_ambi40.png,他人,Word,朋友,Mismatch,j,TRUE,Formal,
,,,,,psychophysics,489,1294338,0.0-8.0-0.2-0.325,702,,f,,,,,,,,,,,,,key,f,16.65043243,650.9524105,361.9047783,3_Stimuli/T_ambi40.png,他人,Word,他人,Match,f,TRUE,Formal,
,,,,,psychophysics,490,1296137,0.0-8.0-0.2-0.326,642,,f,,,,,,,,,,,,,key,f,16.65034579,650.9524105,361.9047783,3_Stimuli/C_ambi40.png,朋友,Word,自我,Mismatch,j,FALSE,Formal,
,,,,,psychophysics,491,1297858,0.0-8.0-0.2-0.327,560,,j,,,,,,,,,,,,,key,j,16.65009804,650.9524105,361.9047783,3_Stimuli/C_ambi40.png,自我,Image,自我,Match,f,FALSE,Formal,
,,,,,psychophysics,492,1299736,0.0-8.0-0.2-0.328,722,,j,,,,,,,,,,,,,key,j,16.65045536,650.9524105,361.9047783,3_Stimuli/S_ambi40.png,自我,Image,朋友,Mismatch,j,TRUE,Formal,
,,,,,psychophysics,493,1301508,0.0-8.0-0.2-0.329,609,,j,,,,,,,,,,,,,key,j,16.65078095,650.9524105,361.9047783,3_Stimuli/T_ambi40.png,自我,Image,他人,Mismatch,j,TRUE,Formal,
,,,,,psychophysics,494,1303587,0.0-8.0-0.2-0.330,926,,j,,,,,,,,,,,,,key,j,16.65028455,650.9524105,361.9047783,3_Stimuli/T_ambi40.png,朋友,Image,他人,Mismatch,j,TRUE,Formal,
,,,,,psychophysics,495,1305364,0.0-8.0-0.2-0.331,624,,j,,,,,,,,,,,,,key,j,16.65025472,650.9524105,361.9047783,3_Stimuli/T_ambi40.png,朋友,Word,他人,Mismatch,j,TRUE,Formal,
,,,,,psychophysics,496,1307328,0.0-8.0-0.2-0.332,807,,f,,,,,,,,,,,,,key,f,16.65021368,650.9524105,361.9047783,3_Stimuli/S_ambi40.png,朋友,Word,朋友,Match,f,TRUE,Formal,
,,,,,psychophysics,497,1309222,0.0-8.0-0.2-0.333,734,,f,,,,,,,,,,,,,key,f,16.65052679,650.9524105,361.9047783,3_Stimuli/C_ambi40.png,自我,Image,自我,Match,f,TRUE,Formal,
,,,,,psychophysics,498,1311027,0.0-8.0-0.2-0.334,640,,f,,,,,,,,,,,,,key,f,16.65025234,650.9524105,361.9047783,3_Stimuli/C_ambi40.png,自我,Word,自我,Match,f,TRUE,Formal,
,,,,,psychophysics,499,1312822,0.0-8.0-0.2-0.335,636,,f,,,,,,,,,,,,,key,f,16.6522243,650.9524105,361.9047783,3_Stimuli/T_ambi40.png,他人,Word,他人,Match,f,TRUE,Formal,
,,,,,psychophysics,500,1314518,0.0-8.0-0.2-0.336,534,,f,,,,,,,,,,,,,key,f,16.65043564,650.9524105,361.9047783,3_Stimuli/T_ambi40.png,朋友,Word,他人,Mismatch,j,FALSE,Formal,
,,,,,psychophysics,501,1316438,0.0-8.0-0.2-0.337,767,,j,,,,,,,,,,,,,key,j,16.79924107,650.9524105,361.9047783,3_Stimuli/S_ambi40.png,他人,Word,朋友,Mismatch,j,TRUE,Formal,
,,,,,psychophysics,502,1318199,0.0-8.0-0.2-0.338,605,,j,,,,,,,,,,,,,key,j,16.65057143,650.9524105,361.9047783,3_Stimuli/C_ambi40.png,他人,Word,自我,Mismatch,j,TRUE,Formal,
,,,,,psychophysics,503,1320213,0.0-8.0-0.2-0.339,855,,j,,,,,,,,,,,,,key,j,16.65036667,650.9524105,361.9047783,3_Stimuli/C_ambi40.png,朋友,Image,自我,Mismatch,j,TRUE,Formal,
,,,,,psychophysics,504,1321935,0.0-8.0-0.2-0.340,557,,f,,,,,,,,,,,,,key,f,16.65032353,650.9524105,361.9047783,3_Stimuli/T_ambi40.png,他人,Word,他人,Match,f,TRUE,Formal,
,,,,,psychophysics,505,1323668,0.0-8.0-0.2-0.341,579,,j,,,,,,,,,,,,,key,j,16.65037864,650.9524105,361.9047783,3_Stimuli/T_ambi40.png,朋友,Image,他人,Mismatch,j,TRUE,Formal,
,,,,,psychophysics,506,1325418,0.0-8.0-0.2-0.342,598,,f,,,,,,,,,,,,,key,f,16.65048077,650.9524105,361.9047783,3_Stimuli/C_ambi40.png,自我,Word,自我,Match,f,TRUE,Formal,
,,,,,psychophysics,507,1327159,0.0-8.0-0.2-0.343,590,,j,,,,,,,,,,,,,key,j,16.65060194,650.9524105,361.9047783,3_Stimuli/S_ambi40.png,自我,Word,朋友,Mismatch,j,TRUE,Formal,
,,,,,psychophysics,508,1328879,0.0-8.0-0.2-0.344,559,,f,,,,,,,,,,,,,key,f,16.65007843,650.9524105,361.9047783,3_Stimuli/C_ambi40.png,自我,Word,自我,Match,f,TRUE,Formal,
,,,,,psychophysics,509,1330764,0.0-8.0-0.2-0.345,731,,f,,,,,,,,,,,,,key,f,16.65113393,650.9524105,361.9047783,3_Stimuli/S_ambi40.png,朋友,Word,朋友,Match,f,TRUE,Formal,
,,,,,psychophysics,510,1332359,0.0-8.0-0.2-0.346,426,,f,,,,,,,,,,,,,key,f,16.6505,650.9524105,361.9047783,3_Stimuli/S_ambi40.png,朋友,Word,朋友,Match,f,TRUE,Formal,
,,,,,psychophysics,511,1333933,0.0-8.0-0.2-0.347,421,,j,,,,,,,,,,,,,key,j,16.64992553,650.9524105,361.9047783,3_Stimuli/T_ambi40.png,他人,Image,他人,Match,f,FALSE,Formal,
,,,,,psychophysics,512,1335537,0.0-8.0-0.2-0.348,441,,f,,,,,,,,,,,,,key,f,16.65011579,650.9524105,361.9047783,3_Stimuli/T_ambi40.png,他人,Word,他人,Match,f,TRUE,Formal,
,,,,,psychophysics,513,1337261,0.0-8.0-0.2-0.349,571,,j,,,,,,,,,,,,,key,j,16.65031373,650.9524105,361.9047783,3_Stimuli/C_ambi40.png,朋友,Word,自我,Mismatch,j,TRUE,Formal,
,,,,,psychophysics,514,1338884,0.0-8.0-0.2-0.350,461,,f,,,,,,,,,,,,,key,f,16.65035417,650.9524105,361.9047783,3_Stimuli/S_ambi40.png,他人,Image,朋友,Mismatch,j,FALSE,Formal,
,,,,,psychophysics,515,1340649,0.0-8.0-0.2-0.351,605,,f,,,,,,,,,,,,,key,f,16.65024762,650.9524105,361.9047783,3_Stimuli/S_ambi40.png,朋友,Image,朋友,Match,f,TRUE,Formal,
,,,,,psychophysics,516,1342398,0.0-8.0-0.2-0.352,592,,f,,,,,,,,,,,,,key,f,16.65028846,650.9524105,361.9047783,3_Stimuli/C_ambi40.png,他人,Image,自我,Mismatch,j,FALSE,Formal,
,,,,,psychophysics,517,1344183,0.0-8.0-0.2-0.353,633,,j,,,,,,,,,,,,,key,j,16.65034906,650.9524105,361.9047783,3_Stimuli/C_ambi40.png,自我,Image,自我,Match,f,FALSE,Formal,
,,,,,psychophysics,518,1346222,0.0-8.0-0.2-0.354,886,,f,,,,,,,,,,,,,key,f,16.6502562,650.9524105,361.9047783,3_Stimuli/T_ambi40.png,自我,Image,他人,Mismatch,j,FALSE,Formal,
,,,,,psychophysics,519,1348598,0.0-8.0-0.2-0.355,1222,,f,,,,,,,,,,,,,key,f,16.65043972,650.9524105,361.9047783,3_Stimuli/S_ambi40.png,自我,Image,朋友,Mismatch,j,FALSE,Formal,
,,,,,psychophysics,520,1350243,0.0-8.0-0.2-0.356,489,,j,,,,,,,,,,,,,key,j,17.00096842,650.9524105,361.9047783,3_Stimuli/S_ambi40.png,朋友,Image,朋友,Match,f,FALSE,Formal,
,,,,,psychophysics,521,1352237,0.0-8.0-0.2-0.357,842,,j,,,,,,,,,,,,,key,j,16.65033613,650.9524105,361.9047783,3_Stimuli/T_ambi40.png,自我,Word,他人,Mismatch,j,TRUE,Formal,
,,,,,psychophysics,522,1354138,0.0-8.0-0.2-0.358,742,,f,,,,,,,,,,,,,key,f,16.65027928,650.9524105,361.9047783,3_Stimuli/C_ambi40.png,自我,Image,自我,Match,f,TRUE,Formal,
,,,,,psychophysics,523,1356105,0.0-8.0-0.2-0.359,814,,j,,,,,,,,,,,,,key,j,16.6502906,650.9524105,361.9047783,3_Stimuli/T_ambi40.png,他人,Image,他人,Match,f,FALSE,Formal,
,,,,,html-keyboard-response,524,1358807,0.0-8.0-1.2,2697,<style>.context{color:white; font-size: 35px; line-height:40px}</style>                        <div><p class='context'>您正确回答了76% 的试次。</p><p class='context'>您的平均反应时为687毫秒。</p><p> <div style = 'color: green'><按任意键进入休息></div></p>, ,,,,,,,,,,,,,,,,,,,,,,,,,,
,,,,,html-button-response,525,1364501,0.0-8.0-2.2,5687,"
                  <p>您当前还剩余3组实验</p>
                  <p>现在是休息时间，当您结束休息后，您可以点击 结束休息 按钮 继续</p>
                  <p>建议休息时间还剩余<span id=""iii"">60</span>秒</p>",0,,,,,,,,,,,,,,,,,,,,,,,,,,
,,,,,psychophysics,526,1366476,0.0-8.0-0.3-0.360,820,,j,,,,,,,,,,,,,key,j,16.65063248,650.9524105,361.9047783,3_Stimuli/C_ambi40.png,朋友,Image,自我,Mismatch,j,TRUE,Formal,
,,,,,psychophysics,527,1368560,0.0-8.0-0.3-0.361,932,,j,,,,,,,,,,,,,key,j,16.65082258,650.9524105,361.9047783,3_Stimuli/T_ambi40.png,自我,Image,他人,Mismatch,j,TRUE,Formal,
,,,,,psychophysics,528,1370415,0.0-8.0-0.3-0.362,702,,j,,,,,,,,,,,,,key,j,16.65042727,650.9524105,361.9047783,3_Stimuli/S_ambi40.png,他人,Word,朋友,Mismatch,j,TRUE,Formal,
,,,,,psychophysics,529,1372297,0.0-8.0-0.3-0.363,728,,j,,,,,,,,,,,,,key,j,16.65035714,650.9524105,361.9047783,3_Stimuli/T_ambi40.png,他人,Image,他人,Match,f,FALSE,Formal,
,,,,,psychophysics,530,1374531,0.0-8.0-0.3-0.364,1074,,j,,,,,,,,,,,,,key,j,16.65051128,650.9524105,361.9047783,3_Stimuli/S_ambi40.png,自我,Image,朋友,Mismatch,j,TRUE,Formal,
,,,,,psychophysics,531,1376339,0.0-8.0-0.3-0.365,656,,j,,,,,,,,,,,,,key,j,16.64965741,650.9524105,361.9047783,3_Stimuli/C_ambi40.png,朋友,Word,自我,Mismatch,j,TRUE,Formal,
,,,,,psychophysics,532,1378512,0.0-8.0-0.3-0.366,1010,,f,,,,,,,,,,,,,key,f,16.65047287,650.9524105,361.9047783,3_Stimuli/S_ambi40.png,朋友,Image,朋友,Match,f,TRUE,Formal,
,,,,,psychophysics,533,1380255,0.0-8.0-0.3-0.367,573,,j,,,,,,,,,,,,,key,j,16.65050485,650.9524105,361.9047783,3_Stimuli/T_ambi40.png,朋友,Image,他人,Mismatch,j,TRUE,Formal,
,,,,,psychophysics,534,1382055,0.0-8.0-0.3-0.368,639,,f,,,,,,,,,,,,,key,f,16.65042056,650.9524105,361.9047783,3_Stimuli/C_ambi40.png,自我,Word,自我,Match,f,TRUE,Formal,
,,,,,psychophysics,535,1383839,0.0-8.0-0.3-0.369,627,,f,,,,,,,,,,,,,key,f,16.65031132,650.9524105,361.9047783,3_Stimuli/S_ambi40.png,自我,Word,朋友,Mismatch,j,FALSE,Formal,
,,,,,psychophysics,536,1385790,0.0-8.0-0.3-0.370,796,,f,,,,,,,,,,,,,key,f,16.65034483,650.9524105,361.9047783,3_Stimuli/T_ambi40.png,自我,Word,他人,Mismatch,j,FALSE,Formal,
,,,,,psychophysics,537,1387699,0.0-8.0-0.3-0.371,757,,f,,,,,,,,,,,,,key,f,16.65307965,650.9524105,361.9047783,3_Stimuli/S_ambi40.png,朋友,Image,朋友,Match,f,TRUE,Formal,
,,,,,psychophysics,538,1389466,0.0-8.0-0.3-0.372,604,,j,,,,,,,,,,,,,key,j,16.65067619,650.9524105,361.9047783,3_Stimuli/T_ambi40.png,朋友,Word,他人,Mismatch,j,TRUE,Formal,
,,,,,psychophysics,539,1391310,0.0-8.0-0.3-0.373,689,,f,,,,,,,,,,,,,key,f,16.65044954,650.9524105,361.9047783,3_Stimuli/C_ambi40.png,他人,Image,自我,Mismatch,j,FALSE,Formal,
,,,,,psychophysics,540,1392880,0.0-8.0-0.3-0.374,415,,j,,,,,,,,,,,,,key,j,16.65048387,650.9524105,361.9047783,3_Stimuli/C_ambi40.png,他人,Word,自我,Mismatch,j,TRUE,Formal,
,,,,,psychophysics,541,1394616,0.0-8.0-0.3-0.375,577,,j,,,,,,,,,,,,,key,j,16.65076699,650.9524105,361.9047783,3_Stimuli/C_ambi40.png,自我,Word,自我,Match,f,FALSE,Formal,
,,,,,psychophysics,542,1396471,0.0-8.0-0.3-0.376,704,,j,,,,,,,,,,,,,key,j,16.64937838,650.9524105,361.9047783,3_Stimuli/S_ambi40.png,朋友,Word,朋友,Match,f,FALSE,Formal,
,,,,,psychophysics,543,1398535,0.0-8.0-0.3-0.377,903,,j,,,,,,,,,,,,,key,j,16.65043089,650.9524105,361.9047783,3_Stimuli/S_ambi40.png,朋友,Word,朋友,Match,f,FALSE,Formal,
,,,,,psychophysics,544,1400937,0.0-8.0-0.3-0.378,1241,,f,,,,,,,,,,,,,key,f,16.65025874,650.9524105,361.9047783,3_Stimuli/C_ambi40.png,自我,Image,自我,Match,f,TRUE,Formal,
,,,,,psychophysics,545,1402675,0.0-8.0-0.3-0.379,577,,f,,,,,,,,,,,,,key,f,16.64995146,650.9524105,361.9047783,3_Stimuli/T_ambi40.png,他人,Image,他人,Match,f,TRUE,Formal,
,,,,,psychophysics,546,1404499,0.0-8.0-0.3-0.380,673,,f,,,,,,,,,,,,,key,f,16.6505,650.9524105,361.9047783,3_Stimuli/T_ambi40.png,他人,Word,他人,Match,f,TRUE,Formal,
,,,,,psychophysics,547,1406339,0.0-8.0-0.3-0.381,679,,j,,,,,,,,,,,,,key,j,16.65043119,650.9524105,361.9047783,3_Stimuli/S_ambi40.png,他人,Image,朋友,Mismatch,j,TRUE,Formal,
,,,,,psychophysics,548,1408301,0.0-8.0-0.3-0.382,794,,f,,,,,,,,,,,,,key,f,16.65043103,650.9524105,361.9047783,3_Stimuli/C_ambi40.png,自我,Image,自我,Match,f,TRUE,Formal,
,,,,,psychophysics,549,1410159,0.0-8.0-0.3-0.383,705,,j,,,,,,,,,,,,,key,j,16.65048649,650.9524105,361.9047783,3_Stimuli/T_ambi40.png,他人,Word,他人,Match,f,FALSE,Formal,
,,,,,psychophysics,550,1412606,0.0-8.0-0.3-0.384,1284,,f,,,,,,,,,,,,,key,f,16.65009589,650.9524105,361.9047783,3_Stimuli/C_ambi40.png,自我,Word,自我,Match,f,TRUE,Formal,
,,,,,psychophysics,551,1414571,0.0-8.0-0.3-0.385,801,,f,,,,,,,,,,,,,key,f,16.65031624,650.9524105,361.9047783,3_Stimuli/T_ambi40.png,他人,Image,他人,Match,f,TRUE,Formal,
,,,,,psychophysics,552,1416638,0.0-8.0-0.3-0.386,905,,f,,,,,,,,,,,,,key,f,16.92561983,650.9524105,361.9047783,3_Stimuli/S_ambi40.png,朋友,Word,朋友,Match,f,TRUE,Formal,
,,,,,psychophysics,553,1418489,0.0-8.0-0.3-0.387,690,,j,,,,,,,,,,,,,key,j,16.65047273,650.9524105,361.9047783,3_Stimuli/C_ambi40.png,朋友,Image,自我,Mismatch,j,TRUE,Formal,
,,,,,psychophysics,554,1420639,0.0-8.0-0.3-0.388,992,,f,,,,,,,,,,,,,key,f,16.64745313,650.9524105,361.9047783,3_Stimuli/C_ambi40.png,自我,Image,自我,Match,f,TRUE,Formal,
,,,,,psychophysics,555,1422292,0.0-8.0-0.3-0.389,496,,f,,,,,,,,,,,,,key,f,16.65096939,650.9524105,361.9047783,3_Stimuli/C_ambi40.png,自我,Word,自我,Match,f,TRUE,Formal,
,,,,,psychophysics,556,1424379,0.0-8.0-0.3-0.390,936,,f,,,,,,,,,,,,,key,f,16.65017742,650.9524105,361.9047783,3_Stimuli/C_ambi40.png,他人,Image,自我,Mismatch,j,FALSE,Formal,
,,,,,psychophysics,557,1426318,0.0-8.0-0.3-0.391,782,,j,,,,,,,,,,,,,key,j,16.6504087,650.9524105,361.9047783,3_Stimuli/C_ambi40.png,朋友,Word,自我,Mismatch,j,TRUE,Formal,
,,,,,psychophysics,558,1427973,0.0-8.0-0.3-0.392,500,,j,,,,,,,,,,,,,key,j,16.65014141,650.9524105,361.9047783,3_Stimuli/C_ambi40.png,他人,Word,自我,Mismatch,j,TRUE,Formal,
,,,,,psychophysics,559,1429703,0.0-8.0-0.3-0.393,573,,f,,,,,,,,,,,,,key,f,16.64920388,650.9524105,361.9047783,3_Stimuli/T_ambi40.png,自我,Image,他人,Mismatch,j,FALSE,Formal,
,,,,,psychophysics,560,1431583,0.0-8.0-0.3-0.394,721,,f,,,,,,,,,,,,,key,f,16.65095495,650.9524105,361.9047783,3_Stimuli/T_ambi40.png,他人,Word,他人,Match,f,TRUE,Formal,
,,,,,psychophysics,561,1433840,0.0-8.0-0.3-0.395,1100,,j,,,,,,,,,,,,,key,j,16.65036567,650.9524105,361.9047783,3_Stimuli/T_ambi40.png,朋友,Word,他人,Mismatch,j,TRUE,Formal,
,,,,,psychophysics,562,1435638,0.0-8.0-0.3-0.396,640,,f,,,,,,,,,,,,,key,f,16.65148598,650.9524105,361.9047783,3_Stimuli/S_ambi40.png,朋友,Image,朋友,Match,f,TRUE,Formal,
,,,,,psychophysics,563,1437287,0.0-8.0-0.3-0.397,494,,f,,,,,,,,,,,,,key,f,16.65057143,650.9524105,361.9047783,3_Stimuli/S_ambi40.png,朋友,Word,朋友,Match,f,TRUE,Formal,
,,,,,psychophysics,564,1439157,0.0-8.0-0.3-0.398,714,,j,,,,,,,,,,,,,key,j,16.65057273,650.9524105,361.9047783,3_Stimuli/S_ambi40.png,自我,Word,朋友,Mismatch,j,TRUE,Formal,
,,,,,psychophysics,565,1440963,0.0-8.0-0.3-0.399,651,,f,,,,,,,,,,,,,key,f,16.65046729,650.9524105,361.9047783,3_Stimuli/T_ambi40.png,自我,Word,他人,Mismatch,j,FALSE,Formal,
,,,,,psychophysics,566,1442676,0.0-8.0-0.3-0.400,557,,f,,,,,,,,,,,,,key,f,16.65014706,650.9524105,361.9047783,3_Stimuli/T_ambi40.png,他人,Image,他人,Match,f,TRUE,Formal,
,,,,,psychophysics,567,1444548,0.0-8.0-0.3-0.401,710,,j,,,,,,,,,,,,,key,j,16.6502973,650.9524105,361.9047783,3_Stimuli/S_ambi40.png,他人,Word,朋友,Mismatch,j,TRUE,Formal,
,,,,,psychophysics,568,1446908,0.0-8.0-0.3-0.402,1206,,j,,,,,,,,,,,,,key,j,16.65049286,650.9524105,361.9047783,3_Stimuli/S_ambi40.png,自我,Image,朋友,Mismatch,j,TRUE,Formal,
,,,,,psychophysics,569,1449057,0.0-8.0-0.3-0.403,989,,f,,,,,,,,,,,,,key,f,16.65038281,650.9524105,361.9047783,3_Stimuli/S_ambi40.png,朋友,Image,朋友,Match,f,TRUE,Formal,
,,,,,psychophysics,570,1451012,0.0-8.0-0.3-0.404,801,,f,,,,,,,,,,,,,key,f,16.6499569,650.9524105,361.9047783,3_Stimuli/T_ambi40.png,他人,Word,他人,Match,f,TRUE,Formal,
,,,,,psychophysics,571,1453006,0.0-8.0-0.3-0.405,831,,f,,,,,,,,,,,,,key,f,16.64982203,650.9524105,361.9047783,3_Stimuli/C_ambi40.png,自我,Image,自我,Match,f,TRUE,Formal,
,,,,,psychophysics,572,1454668,0.0-8.0-0.3-0.406,505,,j,,,,,,,,,,,,,key,j,16.65060204,650.9524105,361.9047783,3_Stimuli/S_ambi40.png,他人,Image,朋友,Mismatch,j,TRUE,Formal,
,,,,,psychophysics,573,1456813,0.0-8.0-0.3-0.407,983,,j,,,,,,,,,,,,,key,j,16.6503125,650.9524105,361.9047783,3_Stimuli/T_ambi40.png,朋友,Image,他人,Mismatch,j,TRUE,Formal,
,,,,,psychophysics,574,1458691,0.0-8.0-0.3-0.408,717,,f,,,,,,,,,,,,,key,f,16.65026786,650.9524105,361.9047783,3_Stimuli/S_ambi40.png,朋友,Word,朋友,Match,f,TRUE,Formal,
,,,,,psychophysics,575,1460384,0.0-8.0-0.3-0.409,532,,j,,,,,,,,,,,,,key,j,16.65051,650.9524105,361.9047783,3_Stimuli/T_ambi40.png,他人,Image,他人,Match,f,FALSE,Formal,
,,,,,psychophysics,576,1462002,0.0-8.0-0.3-0.410,463,,f,,,,,,,,,,,,,key,f,16.6501875,650.9524105,361.9047783,3_Stimuli/T_ambi40.png,他人,Word,他人,Match,f,TRUE,Formal,
,,,,,psychophysics,577,1463597,0.0-8.0-0.3-0.411,433,,f,,,,,,,,,,,,,key,f,16.65110638,650.9524105,361.9047783,3_Stimuli/S_ambi40.png,他人,Word,朋友,Mismatch,j,FALSE,Formal,
,,,,,psychophysics,578,1465644,0.0-8.0-0.3-0.412,893,,j,,,,,,,,,,,,,key,j,16.6502377,650.9524105,361.9047783,3_Stimuli/S_ambi40.png,自我,Image,朋友,Mismatch,j,TRUE,Formal,
,,,,,psychophysics,579,1467358,0.0-8.0-0.3-0.413,556,,f,,,,,,,,,,,,,key,f,16.65045098,650.9524105,361.9047783,3_Stimuli/C_ambi40.png,自我,Word,自我,Match,f,TRUE,Formal,
,,,,,psychophysics,580,1469088,0.0-8.0-0.3-0.414,573,,f,,,,,,,,,,,,,key,f,16.65079612,650.9524105,361.9047783,3_Stimuli/C_ambi40.png,自我,Image,自我,Match,f,TRUE,Formal,
,,,,,psychophysics,581,1470859,0.0-8.0-0.3-0.415,611,,j,,,,,,,,,,,,,key,j,16.65040952,650.9524105,361.9047783,3_Stimuli/S_ambi40.png,自我,Word,朋友,Mismatch,j,TRUE,Formal,
,,,,,psychophysics,582,1473378,0.0-8.0-0.3-0.416,1366,,j,,,,,,,,,,,,,key,j,16.65043624,650.9524105,361.9047783,3_Stimuli/C_ambi40.png,他人,Image,自我,Mismatch,j,TRUE,Formal,
,,,,,psychophysics,583,1475143,0.0-8.0-0.3-0.417,600,,f,,,,,,,,,,,,,key,f,16.6505619,650.9524105,361.9047783,3_Stimuli/T_ambi40.png,朋友,Image,他人,Mismatch,j,FALSE,Formal,
,,,,,psychophysics,584,1476999,0.0-8.0-0.3-0.418,701,,f,,,,,,,,,,,,,key,f,16.65038182,650.9524105,361.9047783,3_Stimuli/T_ambi40.png,他人,Word,他人,Match,f,TRUE,Formal,
,,,,,psychophysics,585,1478775,0.0-8.0-0.3-0.419,619,,j,,,,,,,,,,,,,key,j,16.65033962,650.9524105,361.9047783,3_Stimuli/T_ambi40.png,朋友,Word,他人,Mismatch,j,TRUE,Formal,
,,,,,psychophysics,586,1480498,0.0-8.0-0.3-0.420,566,,f,,,,,,,,,,,,,key,f,16.65040196,650.9524105,361.9047783,3_Stimuli/S_ambi40.png,朋友,Word,朋友,Match,f,TRUE,Formal,
,,,,,psychophysics,587,1482591,0.0-8.0-0.3-0.421,937,,f,,,,,,,,,,,,,key,f,16.650448,650.9524105,361.9047783,3_Stimuli/C_ambi40.png,自我,Word,自我,Match,f,TRUE,Formal,
,,,,,psychophysics,588,1484575,0.0-8.0-0.3-0.422,820,,j,,,,,,,,,,,,,key,j,16.64939831,650.9524105,361.9047783,3_Stimuli/C_ambi40.png,朋友,Image,自我,Mismatch,j,TRUE,Formal,
,,,,,psychophysics,589,1486419,0.0-8.0-0.3-0.423,686,,f,,,,,,,,,,,,,key,f,16.65480734,650.9524105,361.9047783,3_Stimuli/C_ambi40.png,自我,Image,自我,Match,f,TRUE,Formal,
,,,,,psychophysics,590,1488284,0.0-8.0-0.3-0.424,711,,j,,,,,,,,,,,,,key,j,16.65020721,650.9524105,361.9047783,3_Stimuli/C_ambi40.png,他人,Word,自我,Mismatch,j,TRUE,Formal,
,,,,,psychophysics,591,1490048,0.0-8.0-0.3-0.425,607,,f,,,,,,,,,,,,,key,f,16.64953333,650.9524105,361.9047783,3_Stimuli/T_ambi40.png,他人,Image,他人,Match,f,TRUE,Formal,
,,,,,psychophysics,592,1491964,0.0-8.0-0.3-0.426,758,,j,,,,,,,,,,,,,key,j,16.65015789,650.9524105,361.9047783,3_Stimuli/C_ambi40.png,朋友,Word,自我,Mismatch,j,TRUE,Formal,
,,,,,psychophysics,593,1494672,0.0-8.0-0.3-0.427,null,,null,,,,,,,,,,,,,key,null,16.65048765,650.9524105,361.9047783,3_Stimuli/T_ambi40.png,自我,Word,他人,Mismatch,j,FALSE,Formal,
,,,,,psychophysics,594,1496817,0.0-8.0-0.3-0.428,977,,f,,,,,,,,,,,,,key,f,16.65033858,650.9524105,361.9047783,3_Stimuli/S_ambi40.png,朋友,Image,朋友,Match,f,TRUE,Formal,
