"success","timeout","failed_images","failed_audio","failed_video","trial_type","trial_index","time_elapsed","internal_node_id","rt","stimulus","response","value","item_width_mm","item_height_mm","item_width_px","px2mm","view_dist_mm","item_width_deg","px2deg","scale_factor","win_width_deg","win_height_deg","view_history","response_type","key_press","avg_frame_time","center_x","center_y","image","word","target","valence","matchness","correct_response","correct","exp_condition","result"
"true","false","[]","[]","[]","preload","0","752","0.0-0.0","","","","","","","","","","","","","","","","","","","","","","","","","","","","",""
"","","","","","html-keyboard-response","1","36055","0.0-1.0","35302","
     <p>您好，欢迎参加本次实验。</p>
     <p>为充分保障您的权利，请确保您已经知晓并同意《参与实验同意书》以及《数据公开知情同意书》。</p>
     <p>如果您未见过上述内容，请咨询实验员。</p>
     <p>如果您选择继续实验，则表示您已经清楚两份知情同意书的内容并同意。</p>
     <p> <div style = ""color: green""><按任意键至下页></div> </p>
     ","l","","","","","","","","","","","","","","","","","","","","","","","","","",""
"","","","","","html-keyboard-response","2","39016","0.0-2.0-0.0","2960","
      <p>本实验首先需要您填写一些基本个人信息。</p>
      <p> <div style = ""color: green""><按任意键至下页></div></p>
      ","l","","","","","","","","","","","","","","","","","","","","","","","","","",""
"","","","","","call-function","3","39016","0.0-2.0-1.0","","","","","","","","","","","","","","","","","","","","","","","","","","","","",""
"","","","","","survey-html-form","4","48013","0.0-2.0-2.0","8995","","{""Q0"":""1008""}","","","","","","","","","","","","","","","","","","","","","","","","","",""
"","","","","","html-button-response","5","51598","0.0-2.0-3.0","3583","<p style = 'color : white'>您的性别</p>","1","","","","","","","","","","","","","","","","","","","","","","","","","",""
"","","","","","survey-html-form","6","58206","0.0-2.0-4.0","6606","","{""Q0"":""2002""}","","","","","","","","","","","","","","","","","","","","","","","","","",""
"","","","","","survey-html-form","7","68064","0.0-2.0-5.0","9857","","{""Q0"":""5""}","","","","","","","","","","","","","","","","","","","","","","","","","",""
"","","","","","virtual-chinrest","8","278203","0.0-3.0","210137","","","","85.6","53.98","663.7518800642247","7.756201744570715","367.8","13.275037601284494","50","0.804517495224767","37.16","19.18","","","","","","","","","","","","","","",""
"true","","","","","fullscreen","9","281605","0.0-4.0","","","","","","","","","","","","","","","","","","","","","","","","","","","","",""
"","","","","","instructions","10","382086","0.0-5.0","100479","","","","","","","","","","","","","","[{""page_index"":0,""viewing_time"":57443},{""page_index"":1,""viewing_time"":20615},{""page_index"":2,""viewing_time"":12016},{""page_index"":3,""viewing_time"":10405}]","","","","","","","","","","","","","",""
"","","","","","html-keyboard-response","11","385738","0.0-6.0","null","<count-down title=""""></count-down>","null","","","","","","","","","","","","","","","","","","","","","","","","","",""
"","","","","","psychophysics","12","387644","0.0-7.0-0.0-0.0","751","","f","","","","","","","","","","","","","key","f","16.663566371681483","960","536","3_Stimuli/C_ambi40.png","自我","Word","自我","Match","f","true","Practice",""
"","","","","","html-keyboard-response","13","387946","0.0-7.0-0.0-1.0","null","<span style='color:GreenYellow; font-size: 70px;'>正确! </span>","null","","","","","","","","","","","","","","","","","","","","","","","","","feedback",""
"","","","","","psychophysics","14","389586","0.0-7.0-0.0-0.1","489","","j","","","","","","","","","","","","","key","j","16.664653061224474","960","536","3_Stimuli/S_ambi40.png","朋友","Image","朋友","Match","f","false","Practice",""
"","","","","","html-keyboard-response","15","389889","0.0-7.0-0.0-1.1","null","<span style='color:red; font-size: 70px;'>错误! </span>","null","","","","","","","","","","","","","","","","","","","","","","","","","feedback",""
"","","","","","psychophysics","16","392022","0.0-7.0-0.0-0.2","981","","f","","","","","","","","","","","","","key","f","16.663905511810956","960","536","3_Stimuli/S_ambi40.png","朋友","Word","朋友","Match","f","true","Practice",""
"","","","","","html-keyboard-response","17","392323","0.0-7.0-0.0-1.2","null","<span style='color:GreenYellow; font-size: 70px;'>正确! </span>","null","","","","","","","","","","","","","","","","","","","","","","","","","feedback",""
"","","","","","psychophysics","18","394469","0.0-7.0-0.0-0.3","994","","j","","","","","","","","","","","","","key","j","16.66415625000036","960","536","3_Stimuli/C_ambi40.png","他人","Word","自我","Mismatch","j","true","Practice",""
"","","","","","html-keyboard-response","19","394771","0.0-7.0-0.0-1.3","null","<span style='color:GreenYellow; font-size: 70px;'>正确! </span>","null","","","","","","","","","","","","","","","","","","","","","","","","","feedback",""
"","","","","","psychophysics","20","396943","0.0-7.0-0.0-0.4","1020","","j","","","","","","","","","","","","","key","j","16.66357364341104","960","536","3_Stimuli/T_ambi40.png","朋友","Word","他人","Mismatch","j","true","Practice",""
"","","","","","html-keyboard-response","21","397244","0.0-7.0-0.0-1.4","null","<span style='color:GreenYellow; font-size: 70px;'>正确! </span>","null","","","","","","","","","","","","","","","","","","","","","","","","","feedback",""
"","","","","","psychophysics","22","399615","0.0-7.0-0.0-0.5","1218","","f","","","","","","","","","","","","","key","f","16.664106382978485","960","536","3_Stimuli/T_ambi40.png","他人","Image","他人","Match","f","true","Practice",""
"","","","","","html-keyboard-response","23","399917","0.0-7.0-0.0-1.5","null","<span style='color:GreenYellow; font-size: 70px;'>正确! </span>","null","","","","","","","","","","","","","","","","","","","","","","","","","feedback",""
"","","","","","psychophysics","24","401736","0.0-7.0-0.0-0.6","668","","j","","","","","","","","","","","","","key","j","16.663833333333496","960","536","3_Stimuli/T_ambi40.png","朋友","Image","他人","Mismatch","j","true","Practice",""
"","","","","","html-keyboard-response","25","402038","0.0-7.0-0.0-1.6","null","<span style='color:GreenYellow; font-size: 70px;'>正确! </span>","null","","","","","","","","","","","","","","","","","","","","","","","","","feedback",""
"","","","","","psychophysics","26","404224","0.0-7.0-0.0-0.7","1033","","f","","","","","","","","","","","","","key","f","16.664338461538474","960","536","3_Stimuli/T_ambi40.png","他人","Word","他人","Match","f","true","Practice",""
"","","","","","html-keyboard-response","27","404526","0.0-7.0-0.0-1.7","null","<span style='color:GreenYellow; font-size: 70px;'>正确! </span>","null","","","","","","","","","","","","","","","","","","","","","","","","","feedback",""
"","","","","","psychophysics","28","406487","0.0-7.0-0.0-0.8","809","","j","","","","","","","","","","","","","key","j","16.663897435897244","960","536","3_Stimuli/C_ambi40.png","他人","Image","自我","Mismatch","j","true","Practice",""
"","","","","","html-keyboard-response","29","406788","0.0-7.0-0.0-1.8","null","<span style='color:GreenYellow; font-size: 70px;'>正确! </span>","null","","","","","","","","","","","","","","","","","","","","","","","","","feedback",""
"","","","","","psychophysics","30","408789","0.0-7.0-0.0-0.9","849","","f","","","","","","","","","","","","","key","f","16.6635630252099","960","536","3_Stimuli/S_ambi40.png","自我","Image","朋友","Mismatch","j","false","Practice",""
"","","","","","html-keyboard-response","31","409091","0.0-7.0-0.0-1.9","null","<span style='color:red; font-size: 70px;'>错误! </span>","null","","","","","","","","","","","","","","","","","","","","","","","","","feedback",""
"","","","","","psychophysics","32","411009","0.0-7.0-0.0-0.10","766","","f","","","","","","","","","","","","","key","f","16.664447368421335","960","536","3_Stimuli/T_ambi40.png","他人","Word","他人","Match","f","true","Practice",""
"","","","","","html-keyboard-response","33","411311","0.0-7.0-0.0-1.10","null","<span style='color:GreenYellow; font-size: 70px;'>正确! </span>","null","","","","","","","","","","","","","","","","","","","","","","","","","feedback",""
"","","","","","psychophysics","34","413060","0.0-7.0-0.0-0.11","597","","f","","","","","","","","","","","","","key","f","16.664182692307804","960","536","3_Stimuli/C_ambi40.png","自我","Image","自我","Match","f","true","Practice",""
"","","","","","html-keyboard-response","35","413361","0.0-7.0-0.0-1.11","null","<span style='color:GreenYellow; font-size: 70px;'>正确! </span>","null","","","","","","","","","","","","","","","","","","","","","","","","","feedback",""
"","","","","","psychophysics","36","415165","0.0-7.0-0.0-0.12","652","","f","","","","","","","","","","","","","key","f","16.663869158878367","960","536","3_Stimuli/S_ambi40.png","朋友","Word","朋友","Match","f","true","Practice",""
"","","","","","html-keyboard-response","37","415467","0.0-7.0-0.0-1.12","null","<span style='color:GreenYellow; font-size: 70px;'>正确! </span>","null","","","","","","","","","","","","","","","","","","","","","","","","","feedback",""
"","","","","","psychophysics","38","417386","0.0-7.0-0.0-0.13","768","","j","","","","","","","","","","","","","key","j","16.66367543859636","960","536","3_Stimuli/S_ambi40.png","他人","Word","朋友","Mismatch","j","true","Practice",""
"","","","","","html-keyboard-response","39","417689","0.0-7.0-0.0-1.13","null","<span style='color:GreenYellow; font-size: 70px;'>正确! </span>","null","","","","","","","","","","","","","","","","","","","","","","","","","feedback",""
"","","","","","psychophysics","40","419809","0.0-7.0-0.0-0.14","969","","f","","","","","","","","","","","","","key","f","16.663992063492067","960","536","3_Stimuli/S_ambi40.png","朋友","Image","朋友","Match","f","true","Practice",""
"","","","","","html-keyboard-response","41","420109","0.0-7.0-0.0-1.14","null","<span style='color:GreenYellow; font-size: 70px;'>正确! </span>","null","","","","","","","","","","","","","","","","","","","","","","","","","feedback",""
"","","","","","psychophysics","42","422241","0.0-7.0-0.0-0.15","980","","j","","","","","","","","","","","","","key","j","16.66555905511821","960","536","3_Stimuli/T_ambi40.png","自我","Image","他人","Mismatch","j","true","Practice",""
"","","","","","html-keyboard-response","43","422542","0.0-7.0-0.0-1.15","null","<span style='color:GreenYellow; font-size: 70px;'>正确! </span>","null","","","","","","","","","","","","","","","","","","","","","","","","","feedback",""
"","","","","","psychophysics","44","424611","0.0-7.0-0.0-0.16","917","","j","","","","","","","","","","","","","key","j","16.66519512195089","960","536","3_Stimuli/C_ambi40.png","自我","Image","自我","Match","f","false","Practice",""
"","","","","","html-keyboard-response","45","424912","0.0-7.0-0.0-1.16","null","<span style='color:red; font-size: 70px;'>错误! </span>","null","","","","","","","","","","","","","","","","","","","","","","","","","feedback",""
"","","","","","psychophysics","46","426635","0.0-7.0-0.0-0.17","572","","f","","","","","","","","","","","","","key","f","16.666774509803908","960","536","3_Stimuli/C_ambi40.png","自我","Word","自我","Match","f","true","Practice",""
"","","","","","html-keyboard-response","47","426937","0.0-7.0-0.0-1.17","null","<span style='color:GreenYellow; font-size: 70px;'>正确! </span>","null","","","","","","","","","","","","","","","","","","","","","","","","","feedback",""
"","","","","","psychophysics","48","428782","0.0-7.0-0.0-0.18","693","","f","","","","","","","","","","","","","key","f","16.663909090908817","960","536","3_Stimuli/S_ambi40.png","他人","Image","朋友","Mismatch","j","false","Practice",""
"","","","","","html-keyboard-response","49","429083","0.0-7.0-0.0-1.18","null","<span style='color:red; font-size: 70px;'>错误! </span>","null","","","","","","","","","","","","","","","","","","","","","","","","","feedback",""
"","","","","","psychophysics","50","431649","0.0-7.0-0.0-0.19","1414","","j","","","","","","","","","","","","","key","j","16.664019607842956","960","536","3_Stimuli/C_ambi40.png","朋友","Image","自我","Mismatch","j","true","Practice",""
"","","","","","html-keyboard-response","51","431951","0.0-7.0-0.0-1.19","null","<span style='color:GreenYellow; font-size: 70px;'>正确! </span>","null","","","","","","","","","","","","","","","","","","","","","","","","","feedback",""
"","","","","","psychophysics","52","433855","0.0-7.0-0.0-0.20","752","","j","","","","","","","","","","","","","key","j","16.663814159292023","960","536","3_Stimuli/T_ambi40.png","自我","Word","他人","Mismatch","j","true","Practice",""
"","","","","","html-keyboard-response","53","434156","0.0-7.0-0.0-1.20","null","<span style='color:GreenYellow; font-size: 70px;'>正确! </span>","null","","","","","","","","","","","","","","","","","","","","","","","","","feedback",""
"","","","","","psychophysics","54","436802","0.0-7.0-0.0-0.21","1493","","f","","","","","","","","","","","","","key","f","16.6642531645569","960","536","3_Stimuli/T_ambi40.png","他人","Image","他人","Match","f","true","Practice",""
"","","","","","html-keyboard-response","55","437103","0.0-7.0-0.0-1.21","null","<span style='color:GreenYellow; font-size: 70px;'>正确! </span>","null","","","","","","","","","","","","","","","","","","","","","","","","","feedback",""
"","","","","","psychophysics","56","439007","0.0-7.0-0.0-0.22","752","","j","","","","","","","","","","","","","key","j","16.663610619469132","960","536","3_Stimuli/C_ambi40.png","朋友","Word","自我","Mismatch","j","true","Practice",""
"","","","","","html-keyboard-response","57","439309","0.0-7.0-0.0-1.22","null","<span style='color:GreenYellow; font-size: 70px;'>正确! </span>","null","","","","","","","","","","","","","","","","","","","","","","","","","feedback",""
"","","","","","psychophysics","58","441339","0.0-7.0-0.0-0.23","880","","j","","","","","","","","","","","","","key","j","16.654933333333368","960","536","3_Stimuli/S_ambi40.png","自我","Word","朋友","Mismatch","j","true","Practice",""
"","","","","","html-keyboard-response","59","441641","0.0-7.0-0.0-1.23","null","<span style='color:GreenYellow; font-size: 70px;'>正确! </span>","null","","","","","","","","","","","","","","","","","","","","","","","","","feedback",""
"","","","","","html-keyboard-response","60","611949","0.0-7.0-1.0-0.0","170306","<style>.context{color:white; font-size: 35px; line-height:40px}</style>                        <div><p class='context'>您正确回答了83% 的试次。</p><p class='context'>您的平均反应时为903毫秒。</p><p> <div style = 'color: green'><按空格键至下页></div></p>"," ","","","","","","","","","","","","","","","","","","","","","","","","","",""
"","","","","","instructions","61","621971","0.0-7.0-1.0-1.0","10018","","","","","","","","","","","","","","[{""page_index"":0,""viewing_time"":1860},{""page_index"":1,""viewing_time"":6858},{""page_index"":2,""viewing_time"":1300}]","","","","","","","","","","","","","",""
"","","","","","psychophysics","62","623961","0.0-7.1-0.1-0.24","836","","j","","","","","","","","","","","","","key","j","16.664254237287995","960","536","3_Stimuli/T_ambi40.png","朋友","Word","他人","Mismatch","j","true","Practice",""
"","","","","","html-keyboard-response","63","624262","0.0-7.1-0.1-1.24","null","<span style='color:GreenYellow; font-size: 70px;'>正确! </span>","null","","","","","","","","","","","","","","","","","","","","","","","","","feedback",""
"","","","","","psychophysics","64","626072","0.0-7.1-0.1-0.25","659","","j","","","","","","","","","","","","","key","j","16.66367289719659","960","536","3_Stimuli/C_ambi40.png","朋友","Image","自我","Mismatch","j","true","Practice",""
"","","","","","html-keyboard-response","65","626373","0.0-7.1-0.1-1.25","null","<span style='color:GreenYellow; font-size: 70px;'>正确! </span>","null","","","","","","","","","","","","","","","","","","","","","","","","","feedback",""
"","","","","","psychophysics","66","628291","0.0-7.1-0.1-0.26","766","","f","","","","","","","","","","","","","key","f","18.266067307692047","960","536","3_Stimuli/C_ambi40.png","自我","Image","自我","Match","f","true","Practice",""
"","","","","","html-keyboard-response","67","628592","0.0-7.1-0.1-1.26","null","<span style='color:GreenYellow; font-size: 70px;'>正确! </span>","null","","","","","","","","","","","","","","","","","","","","","","","","","feedback",""
"","","","","","psychophysics","68","630640","0.0-7.1-0.1-0.27","897","","f","","","","","","","","","","","","","key","f","16.664622950818977","960","536","3_Stimuli/S_ambi40.png","朋友","Image","朋友","Match","f","true","Practice",""
"","","","","","html-keyboard-response","69","630942","0.0-7.1-0.1-1.27","null","<span style='color:GreenYellow; font-size: 70px;'>正确! </span>","null","","","","","","","","","","","","","","","","","","","","","","","","","feedback",""
"","","","","","psychophysics","70","632770","0.0-7.1-0.1-0.28","677","","j","","","","","","","","","","","","","key","j","16.654157407407183","960","536","3_Stimuli/C_ambi40.png","朋友","Word","自我","Mismatch","j","true","Practice",""
"","","","","","html-keyboard-response","71","633071","0.0-7.1-0.1-1.28","null","<span style='color:GreenYellow; font-size: 70px;'>正确! </span>","null","","","","","","","","","","","","","","","","","","","","","","","","","feedback",""
"","","","","","psychophysics","72","634897","0.0-7.1-0.1-0.29","674","","f","","","","","","","","","","","","","key","f","16.665880733945006","960","536","3_Stimuli/S_ambi40.png","朋友","Word","朋友","Match","f","true","Practice",""
"","","","","","html-keyboard-response","73","635198","0.0-7.1-0.1-1.29","null","<span style='color:GreenYellow; font-size: 70px;'>正确! </span>","null","","","","","","","","","","","","","","","","","","","","","","","","","feedback",""
"","","","","","psychophysics","74","637514","0.0-7.1-0.1-0.30","1165","","j","","","","","","","","","","","","","key","j","16.663376811594006","960","536","3_Stimuli/C_ambi40.png","他人","Image","自我","Mismatch","j","true","Practice",""
"","","","","","html-keyboard-response","75","637816","0.0-7.1-0.1-1.30","null","<span style='color:GreenYellow; font-size: 70px;'>正确! </span>","null","","","","","","","","","","","","","","","","","","","","","","","","","feedback",""
"","","","","","psychophysics","76","639972","0.0-7.1-0.1-0.31","1004","","j","","","","","","","","","","","","","key","j","16.66357812499973","960","536","3_Stimuli/S_ambi40.png","自我","Image","朋友","Mismatch","j","true","Practice",""
"","","","","","html-keyboard-response","77","640273","0.0-7.1-0.1-1.31","null","<span style='color:GreenYellow; font-size: 70px;'>正确! </span>","null","","","","","","","","","","","","","","","","","","","","","","","","","feedback",""
"","","","","","psychophysics","78","642519","0.0-7.1-0.1-0.32","1095","","f","","","","","","","","","","","","","key","f","16.66357462686563","960","536","3_Stimuli/T_ambi40.png","他人","Word","他人","Match","f","true","Practice",""
"","","","","","html-keyboard-response","79","642820","0.0-7.1-0.1-1.32","null","<span style='color:GreenYellow; font-size: 70px;'>正确! </span>","null","","","","","","","","","","","","","","","","","","","","","","","","","feedback",""
"","","","","","psychophysics","80","645480","0.0-7.1-0.1-0.33","1508","","j","","","","","","","","","","","","","key","j","16.663522012578618","960","536","3_Stimuli/T_ambi40.png","他人","Image","他人","Match","f","false","Practice",""
"","","","","","html-keyboard-response","81","645782","0.0-7.1-0.1-1.33","null","<span class='add_' style='color:yellow; font-size: 70px;'> 太慢! </span>","null","","","","","","","","","","","","","","","","","","","","","","","","","feedback",""
"","","","","","psychophysics","82","647820","0.0-7.1-0.1-0.34","886","","j","","","","","","","","","","","","","key","j","16.663975206611692","960","536","3_Stimuli/S_ambi40.png","他人","Word","朋友","Mismatch","j","true","Practice",""
"","","","","","html-keyboard-response","83","648122","0.0-7.1-0.1-1.34","null","<span style='color:GreenYellow; font-size: 70px;'>正确! </span>","null","","","","","","","","","","","","","","","","","","","","","","","","","feedback",""
"","","","","","psychophysics","84","649962","0.0-7.1-0.1-0.35","689","","f","","","","","","","","","","","","","key","f","16.6634636363639","960","536","3_Stimuli/T_ambi40.png","他人","Word","他人","Match","f","true","Practice",""
"","","","","","html-keyboard-response","85","650264","0.0-7.1-0.1-1.35","null","<span style='color:GreenYellow; font-size: 70px;'>正确! </span>","null","","","","","","","","","","","","","","","","","","","","","","","","","feedback",""
"","","","","","psychophysics","86","652033","0.0-7.1-0.1-0.36","616","","j","","","","","","","","","","","","","key","j","16.665571428571518","960","536","3_Stimuli/T_ambi40.png","自我","Word","他人","Mismatch","j","true","Practice",""
"","","","","","html-keyboard-response","87","652334","0.0-7.1-0.1-1.36","null","<span style='color:GreenYellow; font-size: 70px;'>正确! </span>","null","","","","","","","","","","","","","","","","","","","","","","","","","feedback",""
"","","","","","psychophysics","88","654310","0.0-7.1-0.1-0.37","824","","j","","","","","","","","","","","","","key","j","16.664330508474112","960","536","3_Stimuli/T_ambi40.png","朋友","Image","他人","Mismatch","j","true","Practice",""
"","","","","","html-keyboard-response","89","654611","0.0-7.1-0.1-1.37","null","<span style='color:GreenYellow; font-size: 70px;'>正确! </span>","null","","","","","","","","","","","","","","","","","","","","","","","","","feedback",""
"","","","","","psychophysics","90","656466","0.0-7.1-0.1-0.38","703","","j","","","","","","","","","","","","","key","j","16.66376363636333","960","536","3_Stimuli/T_ambi40.png","自我","Image","他人","Mismatch","j","true","Practice",""
"","","","","","html-keyboard-response","91","656767","0.0-7.1-0.1-1.38","null","<span style='color:GreenYellow; font-size: 70px;'>正确! </span>","null","","","","","","","","","","","","","","","","","","","","","","","","","feedback",""
"","","","","","psychophysics","92","658914","0.0-7.1-0.1-0.39","996","","f","","","","","","","","","","","","","key","f","16.66430468750059","960","536","3_Stimuli/T_ambi40.png","他人","Image","他人","Match","f","true","Practice",""
"","","","","","html-keyboard-response","93","659215","0.0-7.1-0.1-1.39","null","<span style='color:GreenYellow; font-size: 70px;'>正确! </span>","null","","","","","","","","","","","","","","","","","","","","","","","","","feedback",""
"","","","","","psychophysics","94","661144","0.0-7.1-0.1-0.40","777","","f","","","","","","","","","","","","","key","f","16.66440869565223","960","536","3_Stimuli/S_ambi40.png","朋友","Image","朋友","Match","f","true","Practice",""
"","","","","","html-keyboard-response","95","661446","0.0-7.1-0.1-1.40","null","<span style='color:GreenYellow; font-size: 70px;'>正确! </span>","null","","","","","","","","","","","","","","","","","","","","","","","","","feedback",""
"","","","","","psychophysics","96","663199","0.0-7.1-0.1-0.41","601","","f","","","","","","","","","","","","","key","f","16.663826923077487","960","536","3_Stimuli/C_ambi40.png","自我","Word","自我","Match","f","true","Practice",""
"","","","","","html-keyboard-response","97","663500","0.0-7.1-0.1-1.41","null","<span style='color:GreenYellow; font-size: 70px;'>正确! </span>","null","","","","","","","","","","","","","","","","","","","","","","","","","feedback",""
"","","","","","psychophysics","98","665612","0.0-7.1-0.1-0.42","959","","f","","","","","","","","","","","","","key","f","18.271464912280063","960","536","3_Stimuli/S_ambi40.png","朋友","Word","朋友","Match","f","true","Practice",""
"","","","","","html-keyboard-response","99","665913","0.0-7.1-0.1-1.42","null","<span style='color:GreenYellow; font-size: 70px;'>正确! </span>","null","","","","","","","","","","","","","","","","","","","","","","","","","feedback",""
"","","","","","psychophysics","100","667646","0.0-7.1-0.1-0.43","582","","f","","","","","","","","","","","","","key","f","16.663825242719117","960","536","3_Stimuli/C_ambi40.png","自我","Image","自我","Match","f","true","Practice",""
"","","","","","html-keyboard-response","101","667948","0.0-7.1-0.1-1.43","null","<span style='color:GreenYellow; font-size: 70px;'>正确! </span>","null","","","","","","","","","","","","","","","","","","","","","","","","","feedback",""
"","","","","","psychophysics","102","669929","0.0-7.1-0.1-0.44","830","","f","","","","","","","","","","","","","key","f","16.664084745762413","960","536","3_Stimuli/C_ambi40.png","自我","Word","自我","Match","f","true","Practice",""
"","","","","","html-keyboard-response","103","670230","0.0-7.1-0.1-1.44","null","<span style='color:GreenYellow; font-size: 70px;'>正确! </span>","null","","","","","","","","","","","","","","","","","","","","","","","","","feedback",""
"","","","","","psychophysics","104","672067","0.0-7.1-0.1-0.45","685","","j","","","","","","","","","","","","","key","j","16.663761467889696","960","536","3_Stimuli/S_ambi40.png","他人","Image","朋友","Mismatch","j","true","Practice",""
"","","","","","html-keyboard-response","105","672369","0.0-7.1-0.1-1.45","null","<span style='color:GreenYellow; font-size: 70px;'>正确! </span>","null","","","","","","","","","","","","","","","","","","","","","","","","","feedback",""
"","","","","","psychophysics","106","674341","0.0-7.1-0.1-0.46","821","","j","","","","","","","","","","","","","key","j","16.65477777777725","960","536","3_Stimuli/C_ambi40.png","他人","Word","自我","Mismatch","j","true","Practice",""
"","","","","","html-keyboard-response","107","674642","0.0-7.1-0.1-1.46","null","<span style='color:GreenYellow; font-size: 70px;'>正确! </span>","null","","","","","","","","","","","","","","","","","","","","","","","","","feedback",""
"","","","","","psychophysics","108","676566","0.0-7.1-0.1-0.47","771","","j","","","","","","","","","","","","","key","j","16.664333333332795","960","536","3_Stimuli/S_ambi40.png","自我","Word","朋友","Mismatch","j","true","Practice",""
"","","","","","html-keyboard-response","109","676868","0.0-7.1-0.1-1.47","null","<span style='color:GreenYellow; font-size: 70px;'>正确! </span>","null","","","","","","","","","","","","","","","","","","","","","","","","","feedback",""
"","","","","","html-keyboard-response","110","805326","0.0-8.0","128457","<style>.context{color:white; font-size: 35px; line-height:40px}</style>                          <div><p class='context'>您正确回答了96% 的试次。</p><p class='context'>您的平均反应时为805毫秒。</p><p class='context'>恭喜您完成练习。现在请休息3~5分钟。</p><p class='context'>之后，按任意键进入正式实验。需要注意的是，正式实验将不再提供反应是否正确的反馈。</p><p class='footer' style='font-size: 35px; line-height:40px;'>请在进入正式实验实验之前将您的<span style='color: lightgreen;'>食指</span>放在电脑键盘的相应键位上进行按键。</p>","j","","","","","","","","","","","","","","","","","","","","","","","","","",""
"","","","","","psychophysics","111","808034","0.0-9.0-0.0-0.0","null","","null","","","","","","","","","","","","","key","null","17.643163398692682","960","536","3_Stimuli/S_ambi40.png","他人","Word","朋友","Mismatch","j","false","Formal",""
"","","","","","psychophysics","112","810108","0.0-9.0-0.0-0.1","923","","j","","","","","","","","","","","","","key","j","16.66414634146391","960","536","3_Stimuli/T_ambi40.png","朋友","Word","他人","Mismatch","j","true","Formal",""
"","","","","","psychophysics","113","811900","0.0-9.0-0.0-0.2","639","","f","","","","","","","","","","","","","key","f","16.666046728971892","960","536","3_Stimuli/C_ambi40.png","自我","Image","自我","Match","f","true","Formal",""
"","","","","","psychophysics","114","813623","0.0-9.0-0.0-0.3","571","","j","","","","","","","","","","","","","key","j","16.66494117647081","960","536","3_Stimuli/S_ambi40.png","朋友","Word","朋友","Match","f","false","Formal",""
"","","","","","psychophysics","115","815741","0.0-9.0-0.0-0.4","966","","f","","","","","","","","","","","","","key","f","16.662959999999963","960","536","3_Stimuli/T_ambi40.png","他人","Word","他人","Match","f","true","Formal",""
"","","","","","psychophysics","116","817585","0.0-9.0-0.0-0.5","693","","j","","","","","","","","","","","","","key","j","16.663590909090868","960","536","3_Stimuli/T_ambi40.png","自我","Word","他人","Mismatch","j","true","Formal",""
"","","","","","psychophysics","117","819446","0.0-9.0-0.0-0.6","710","","j","","","","","","","","","","","","","key","j","16.663405405404674","960","536","3_Stimuli/S_ambi40.png","自我","Word","朋友","Mismatch","j","true","Formal",""
"","","","","","psychophysics","118","821469","0.0-9.0-0.0-0.7","871","","j","","","","","","","","","","","","","key","j","16.663724999999978","960","536","3_Stimuli/C_ambi40.png","他人","Word","自我","Mismatch","j","true","Formal",""
"","","","","","psychophysics","119","823303","0.0-9.0-0.0-0.8","682","","f","","","","","","","","","","","","","key","f","16.665155963302556","960","536","3_Stimuli/T_ambi40.png","他人","Image","他人","Match","f","true","Formal",""
"","","","","","psychophysics","120","825126","0.0-9.0-0.0-0.9","670","","f","","","","","","","","","","","","","key","f","16.664277777778572","960","536","3_Stimuli/S_ambi40.png","朋友","Word","朋友","Match","f","true","Formal",""
"","","","","","psychophysics","121","827011","0.0-9.0-0.0-0.10","734","","j","","","","","","","","","","","","","key","j","16.663633928571862","960","536","3_Stimuli/T_ambi40.png","他人","Word","他人","Match","f","false","Formal",""
"","","","","","psychophysics","122","828841","0.0-9.0-0.0-0.11","679","","j","","","","","","","","","","","","","key","j","16.663777777777458","960","536","3_Stimuli/S_ambi40.png","自我","Image","朋友","Mismatch","j","true","Formal",""
"","","","","","psychophysics","123","830857","0.0-9.0-0.0-0.12","860","","j","","","","","","","","","","","","","key","j","16.663907563025248","960","536","3_Stimuli/S_ambi40.png","他人","Image","朋友","Mismatch","j","true","Formal",""
"","","","","","psychophysics","124","832700","0.0-9.0-0.0-0.13","691","","f","","","","","","","","","","","","","key","f","16.663477064220345","960","536","3_Stimuli/T_ambi40.png","他人","Image","他人","Match","f","true","Formal",""
"","","","","","psychophysics","125","834760","0.0-9.0-0.0-0.14","907","","j","","","","","","","","","","","","","key","j","16.66343089430858","960","536","3_Stimuli/C_ambi40.png","朋友","Word","自我","Mismatch","j","true","Formal",""
"","","","","","psychophysics","126","836655","0.0-9.0-0.0-0.15","741","","j","","","","","","","","","","","","","key","j","16.663455357142084","960","536","3_Stimuli/C_ambi40.png","朋友","Image","自我","Mismatch","j","true","Formal",""
"","","","","","psychophysics","127","838397","0.0-9.0-0.0-0.16","591","","f","","","","","","","","","","","","","key","f","16.663721153846172","960","536","3_Stimuli/S_ambi40.png","朋友","Image","朋友","Match","f","true","Formal",""
"","","","","","psychophysics","128","840141","0.0-9.0-0.0-0.17","585","","f","","","","","","","","","","","","","key","f","16.663786407766946","960","536","3_Stimuli/C_ambi40.png","自我","Image","自我","Match","f","true","Formal",""
"","","","","","psychophysics","129","841851","0.0-9.0-0.0-0.18","559","","f","","","","","","","","","","","","","key","f","16.66388118811906","960","536","3_Stimuli/C_ambi40.png","自我","Word","自我","Match","f","true","Formal",""
"","","","","","psychophysics","130","843677","0.0-9.0-0.0-0.19","674","","f","","","","","","","","","","","","","key","f","16.663715596331087","960","536","3_Stimuli/S_ambi40.png","朋友","Image","朋友","Match","f","true","Formal",""
"","","","","","psychophysics","131","845479","0.0-9.0-0.0-0.20","649","","f","","","","","","","","","","","","","key","f","16.66381308411261","960","536","3_Stimuli/C_ambi40.png","自我","Word","自我","Match","f","true","Formal",""
"","","","","","psychophysics","132","847781","0.0-9.0-0.0-0.21","1151","","j","","","","","","","","","","","","","key","j","16.664036496350352","960","536","3_Stimuli/T_ambi40.png","朋友","Image","他人","Mismatch","j","true","Formal",""
"","","","","","psychophysics","133","849585","0.0-9.0-0.0-0.22","652","","j","","","","","","","","","","","","","key","j","16.664074766356062","960","536","3_Stimuli/C_ambi40.png","他人","Image","自我","Mismatch","j","true","Formal",""
"","","","","","psychophysics","134","851538","0.0-9.0-0.0-0.23","801","","j","","","","","","","","","","","","","key","j","16.664530434782375","960","536","3_Stimuli/T_ambi40.png","自我","Image","他人","Mismatch","j","true","Formal",""
"","","","","","psychophysics","135","854241","0.0-9.0-0.0-0.24","null","","null","","","","","","","","","","","","","key","null","16.662322981366223","960","536","3_Stimuli/T_ambi40.png","朋友","Image","他人","Mismatch","j","false","Formal",""
"","","","","","psychophysics","136","856119","0.0-9.0-0.0-0.25","727","","f","","","","","","","","","","","","","key","f","16.663999999999195","960","536","3_Stimuli/S_ambi40.png","朋友","Word","朋友","Match","f","true","Formal",""
"","","","","","psychophysics","137","857981","0.0-9.0-0.0-0.26","710","","j","","","","","","","","","","","","","key","j","16.663819819819896","960","536","3_Stimuli/C_ambi40.png","他人","Word","自我","Mismatch","j","true","Formal",""
"","","","","","psychophysics","138","860355","0.0-9.0-0.0-0.27","1222","","j","","","","","","","","","","","","","key","j","16.66403521126805","960","536","3_Stimuli/S_ambi40.png","自我","Image","朋友","Mismatch","j","true","Formal",""
"","","","","","psychophysics","139","862612","0.0-9.0-0.0-0.28","1105","","j","","","","","","","","","","","","","key","j","16.664432835820783","960","536","3_Stimuli/T_ambi40.png","自我","Image","他人","Mismatch","j","true","Formal",""
"","","","","","psychophysics","140","864697","0.0-9.0-0.0-0.29","933","","f","","","","","","","","","","","","","key","f","16.662483870968103","960","536","3_Stimuli/S_ambi40.png","他人","Word","朋友","Mismatch","j","false","Formal",""
"","","","","","psychophysics","141","866802","0.0-9.0-0.0-0.30","954","","j","","","","","","","","","","","","","key","j","16.66382608695725","960","536","3_Stimuli/T_ambi40.png","朋友","Word","他人","Mismatch","j","true","Formal",""
"","","","","","psychophysics","142","868653","0.0-9.0-0.0-0.31","700","","f","","","","","","","","","","","","","key","f","16.663645454545886","960","536","3_Stimuli/S_ambi40.png","朋友","Word","朋友","Match","f","true","Formal",""
"","","","","","psychophysics","143","870714","0.0-9.0-0.0-0.32","910","","j","","","","","","","","","","","","","key","j","16.66366393442674","960","536","3_Stimuli/T_ambi40.png","他人","Image","他人","Match","f","false","Formal",""
"","","","","","psychophysics","144","872452","0.0-9.0-0.0-0.33","587","","f","","","","","","","","","","","","","key","f","16.664116504855308","960","536","3_Stimuli/C_ambi40.png","自我","Image","自我","Match","f","true","Formal",""
"","","","","","psychophysics","145","874361","0.0-9.0-0.0-0.34","757","","f","","","","","","","","","","","","","key","f","16.663938053096523","960","536","3_Stimuli/C_ambi40.png","自我","Image","自我","Match","f","true","Formal",""
"","","","","","psychophysics","146","876364","0.0-9.0-0.0-0.35","850","","f","","","","","","","","","","","","","key","f","16.663677966101805","960","536","3_Stimuli/S_ambi40.png","朋友","Image","朋友","Match","f","true","Formal",""
"","","","","","psychophysics","147","878148","0.0-9.0-0.0-0.36","632","","f","","","","","","","","","","","","","key","f","16.66391509433962","960","536","3_Stimuli/S_ambi40.png","朋友","Image","朋友","Match","f","true","Formal",""
"","","","","","psychophysics","148","879867","0.0-9.0-0.0-0.37","567","","f","","","","","","","","","","","","","key","f","16.663372549019506","960","536","3_Stimuli/T_ambi40.png","他人","Image","他人","Match","f","true","Formal",""
"","","","","","psychophysics","149","881841","0.0-9.0-0.0-0.38","823","","j","","","","","","","","","","","","","key","j","16.66431623931604","960","536","3_Stimuli/C_ambi40.png","朋友","Word","自我","Mismatch","j","true","Formal",""
"","","","","","psychophysics","150","883712","0.0-9.0-0.0-0.39","718","","j","","","","","","","","","","","","","key","j","16.6632072072065","960","536","3_Stimuli/T_ambi40.png","自我","Word","他人","Mismatch","j","true","Formal",""
"","","","","","psychophysics","151","885612","0.0-9.0-0.0-0.40","749","","j","","","","","","","","","","","","","key","j","16.664070796460507","960","536","3_Stimuli/C_ambi40.png","他人","Image","自我","Mismatch","j","true","Formal",""
"","","","","","psychophysics","152","887624","0.0-9.0-0.0-0.41","860","","j","","","","","","","","","","","","","key","j","16.6638916666668","960","536","3_Stimuli/C_ambi40.png","自我","Word","自我","Match","f","false","Formal",""
"","","","","","psychophysics","153","889658","0.0-9.0-0.0-0.42","882","","f","","","","","","","","","","","","","key","f","16.66318181818178","960","536","3_Stimuli/C_ambi40.png","自我","Word","自我","Match","f","true","Formal",""
"","","","","","psychophysics","154","891689","0.0-9.0-0.0-0.43","881","","j","","","","","","","","","","","","","key","j","16.663884297521278","960","536","3_Stimuli/S_ambi40.png","他人","Image","朋友","Mismatch","j","true","Formal",""
"","","","","","psychophysics","155","893501","0.0-9.0-0.0-0.44","660","","j","","","","","","","","","","","","","key","j","16.66383333333242","960","536","3_Stimuli/C_ambi40.png","朋友","Image","自我","Mismatch","j","true","Formal",""
"","","","","","psychophysics","156","895911","0.0-9.0-0.0-0.45","1258","","j","","","","","","","","","","","","","key","j","16.664895104895624","960","536","3_Stimuli/S_ambi40.png","自我","Word","朋友","Mismatch","j","true","Formal",""
"","","","","","psychophysics","157","897993","0.0-9.0-0.0-0.46","930","","f","","","","","","","","","","","","","key","f","16.664121951218846","960","536","3_Stimuli/T_ambi40.png","他人","Word","他人","Match","f","true","Formal",""
"","","","","","psychophysics","158","900309","0.0-9.0-0.0-0.47","1163","","f","","","","","","","","","","","","","key","f","16.6637173913043","960","536","3_Stimuli/T_ambi40.png","他人","Word","他人","Match","f","true","Formal",""
"","","","","","psychophysics","159","902283","0.0-9.0-0.0-0.48","821","","f","","","","","","","","","","","","","key","f","16.663313559321608","960","536","3_Stimuli/C_ambi40.png","自我","Word","自我","Match","f","true","Formal",""
"","","","","","psychophysics","160","904252","0.0-9.0-0.0-0.49","818","","f","","","","","","","","","","","","","key","f","16.66312820512829","960","536","3_Stimuli/S_ambi40.png","朋友","Word","朋友","Match","f","true","Formal",""
"","","","","","psychophysics","161","906373","0.0-9.0-0.0-0.50","969","","j","","","","","","","","","","","","","key","j","16.663595238095333","960","536","3_Stimuli/T_ambi40.png","朋友","Image","他人","Mismatch","j","true","Formal",""
"","","","","","psychophysics","162","909070","0.0-9.0-0.0-0.51","1545","","j","","","","","","","","","","","","","key","j","16.66436645962726","960","536","3_Stimuli/T_ambi40.png","自我","Word","他人","Mismatch","j","true","Formal",""
"","","","","","psychophysics","163","911378","0.0-9.0-0.0-0.52","1153","","f","","","","","","","","","","","","","key","f","16.66371532846718","960","536","3_Stimuli/T_ambi40.png","他人","Image","他人","Match","f","true","Formal",""
"","","","","","psychophysics","164","913185","0.0-9.0-0.0-0.53","657","","f","","","","","","","","","","","","","key","f","16.664523364485362","960","536","3_Stimuli/C_ambi40.png","自我","Image","自我","Match","f","true","Formal",""
"","","","","","psychophysics","165","915435","0.0-9.0-0.0-0.54","1098","","f","","","","","","","","","","","","","key","f","16.66336567164138","960","536","3_Stimuli/T_ambi40.png","他人","Word","他人","Match","f","true","Formal",""
"","","","","","psychophysics","166","917738","0.0-9.0-0.0-0.55","1151","","j","","","","","","","","","","","","","key","j","16.66338686131359","960","536","3_Stimuli/S_ambi40.png","自我","Word","朋友","Mismatch","j","true","Formal",""
"","","","","","psychophysics","167","919852","0.0-9.0-0.0-0.56","962","","j","","","","","","","","","","","","","key","j","18.100387931034643","960","536","3_Stimuli/C_ambi40.png","他人","Word","自我","Mismatch","j","true","Formal",""
"","","","","","psychophysics","168","921878","0.0-9.0-0.0-0.57","874","","f","","","","","","","","","","","","","key","f","16.66387603305711","960","536","3_Stimuli/S_ambi40.png","朋友","Image","朋友","Match","f","true","Formal",""
"","","","","","psychophysics","169","923846","0.0-9.0-0.0-0.58","816","","j","","","","","","","","","","","","","key","j","16.663418803418764","960","536","3_Stimuli/C_ambi40.png","朋友","Word","自我","Mismatch","j","true","Formal",""
"","","","","","psychophysics","170","925816","0.0-9.0-0.0-0.59","818","","f","","","","","","","","","","","","","key","f","16.66364957264955","960","536","3_Stimuli/S_ambi40.png","他人","Word","朋友","Mismatch","j","false","Formal",""
"","","","","","psychophysics","171","928522","0.0-9.0-0.0-0.60","null","","null","","","","","","","","","","","","","key","null","16.6637577639751","960","536","3_Stimuli/T_ambi40.png","朋友","Word","他人","Mismatch","j","false","Formal",""
"","","","","","psychophysics","172","930472","0.0-9.0-0.0-0.61","797","","j","","","","","","","","","","","","","key","j","16.663681034482455","960","536","3_Stimuli/C_ambi40.png","朋友","Image","自我","Mismatch","j","true","Formal",""
"","","","","","psychophysics","173","932305","0.0-9.0-0.0-0.62","682","","f","","","","","","","","","","","","","key","f","16.665788990825654","960","536","3_Stimuli/C_ambi40.png","自我","Word","自我","Match","f","true","Formal",""
"","","","","","psychophysics","174","934254","0.0-9.0-0.0-0.63","798","","j","","","","","","","","","","","","","key","j","16.66437068965551","960","536","3_Stimuli/S_ambi40.png","自我","Image","朋友","Mismatch","j","true","Formal",""
"","","","","","psychophysics","175","936957","0.0-9.0-0.0-0.64","null","","null","","","","","","","","","","","","","key","null","16.663298136645768","960","536","3_Stimuli/S_ambi40.png","朋友","Word","朋友","Match","f","false","Formal",""
"","","","","","psychophysics","176","938766","0.0-9.0-0.0-0.65","656","","f","","","","","","","","","","","","","key","f","16.664747663550557","960","536","3_Stimuli/C_ambi40.png","自我","Image","自我","Match","f","true","Formal",""
"","","","","","psychophysics","177","940765","0.0-9.0-0.0-0.66","847","","j","","","","","","","","","","","","","key","j","16.66369747899144","960","536","3_Stimuli/C_ambi40.png","他人","Image","自我","Mismatch","j","true","Formal",""
"","","","","","psychophysics","178","942886","0.0-9.0-0.0-0.67","970","","j","","","","","","","","","","","","","key","j","16.663452380952158","960","536","3_Stimuli/S_ambi40.png","他人","Image","朋友","Mismatch","j","true","Formal",""
"","","","","","psychophysics","179","944685","0.0-9.0-0.0-0.68","648","","f","","","","","","","","","","","","","key","f","16.663934579438955","960","536","3_Stimuli/T_ambi40.png","他人","Word","他人","Match","f","true","Formal",""
"","","","","","psychophysics","180","946632","0.0-9.0-0.0-0.69","796","","j","","","","","","","","","","","","","key","j","16.665422413793216","960","536","3_Stimuli/T_ambi40.png","自我","Image","他人","Mismatch","j","true","Formal",""
"","","","","","psychophysics","181","948501","0.0-9.0-0.0-0.70","716","","f","","","","","","","","","","","","","key","f","16.66603603603545","960","536","3_Stimuli/S_ambi40.png","朋友","Image","朋友","Match","f","true","Formal",""
"","","","","","psychophysics","182","950626","0.0-9.0-0.0-0.71","972","","f","","","","","","","","","","","","","key","f","16.66314173228287","960","536","3_Stimuli/T_ambi40.png","他人","Image","他人","Match","f","true","Formal",""
"","","","","","psychophysics","183","952471","0.0-9.0-0.0-0.72","693","","f","","","","","","","","","","","","","key","f","16.663844036696684","960","536","3_Stimuli/S_ambi40.png","朋友","Word","朋友","Match","f","true","Formal",""
"","","","","","psychophysics","184","954544","0.0-9.0-0.0-0.73","923","","j","","","","","","","","","","","","","key","j","16.66382113821157","960","536","3_Stimuli/S_ambi40.png","自我","Word","朋友","Mismatch","j","true","Formal",""
"","","","","","psychophysics","185","956577","0.0-9.0-0.0-0.74","882","","j","","","","","","","","","","","","","key","j","16.66308264462816","960","536","3_Stimuli/C_ambi40.png","他人","Image","自我","Mismatch","j","true","Formal",""
"","","","","","psychophysics","186","958643","0.0-9.0-0.0-0.75","914","","f","","","","","","","","","","","","","key","f","16.662886178862053","960","536","3_Stimuli/S_ambi40.png","他人","Image","朋友","Mismatch","j","false","Formal",""
"","","","","","psychophysics","187","960545","0.0-9.0-0.0-0.76","751","","j","","","","","","","","","","","","","key","j","16.664557522124678","960","536","3_Stimuli/T_ambi40.png","自我","Word","他人","Mismatch","j","true","Formal",""
"","","","","","psychophysics","188","962795","0.0-9.0-0.0-0.77","1099","","f","","","","","","","","","","","","","key","f","16.664111940297925","960","536","3_Stimuli/T_ambi40.png","他人","Image","他人","Match","f","true","Formal",""
"","","","","","psychophysics","189","964576","0.0-9.0-0.0-0.78","630","","j","","","","","","","","","","","","","key","j","16.66415094339535","960","536","3_Stimuli/C_ambi40.png","他人","Word","自我","Mismatch","j","true","Formal",""
"","","","","","psychophysics","190","966428","0.0-9.0-0.0-0.79","700","","f","","","","","","","","","","","","","key","f","16.663245454545937","960","536","3_Stimuli/S_ambi40.png","朋友","Image","朋友","Match","f","true","Formal",""
"","","","","","psychophysics","191","968221","0.0-9.0-0.0-0.80","642","","f","","","","","","","","","","","","","key","f","16.664523364485362","960","536","3_Stimuli/S_ambi40.png","他人","Word","朋友","Mismatch","j","false","Formal",""
"","","","","","psychophysics","192","970387","0.0-9.0-0.0-0.81","1015","","f","","","","","","","","","","","","","key","f","16.66389147286816","960","536","3_Stimuli/T_ambi40.png","他人","Image","他人","Match","f","true","Formal",""
"","","","","","psychophysics","193","972398","0.0-9.0-0.0-0.82","858","","j","","","","","","","","","","","","","key","j","16.663630252100425","960","536","3_Stimuli/S_ambi40.png","自我","Image","朋友","Mismatch","j","true","Formal",""
"","","","","","psychophysics","194","974305","0.0-9.0-0.0-0.83","756","","f","","","","","","","","","","","","","key","f","16.66473684210449","960","536","3_Stimuli/C_ambi40.png","自我","Word","自我","Match","f","true","Formal",""
"","","","","","psychophysics","195","976293","0.0-9.0-0.0-0.84","836","","j","","","","","","","","","","","","","key","j","16.663805084745004","960","536","3_Stimuli/C_ambi40.png","朋友","Word","自我","Mismatch","j","true","Formal",""
"","","","","","psychophysics","196","978196","0.0-9.0-0.0-0.85","750","","j","","","","","","","","","","","","","key","j","16.663928571428446","960","536","3_Stimuli/C_ambi40.png","朋友","Image","自我","Mismatch","j","true","Formal",""
"","","","","","psychophysics","197","980070","0.0-9.0-0.0-0.86","723","","j","","","","","","","","","","","","","key","j","16.66368749999986","960","536","3_Stimuli/T_ambi40.png","朋友","Word","他人","Mismatch","j","true","Formal",""
"","","","","","psychophysics","198","981881","0.0-9.0-0.0-0.87","659","","f","","","","","","","","","","","","","key","f","16.663233644859954","960","536","3_Stimuli/C_ambi40.png","自我","Word","自我","Match","f","true","Formal",""
"","","","","","psychophysics","199","983803","0.0-9.0-0.0-0.88","771","","j","","","","","","","","","","","","","key","j","16.66294736842106","960","536","3_Stimuli/T_ambi40.png","他人","Word","他人","Match","f","false","Formal",""
"","","","","","psychophysics","200","985719","0.0-9.0-0.0-0.89","764","","f","","","","","","","","","","","","","key","f","16.663614035087736","960","536","3_Stimuli/C_ambi40.png","自我","Image","自我","Match","f","true","Formal",""
"","","","","","psychophysics","201","987568","0.0-9.0-0.0-0.90","697","","f","","","","","","","","","","","","","key","f","17.293726415094426","960","536","3_Stimuli/C_ambi40.png","自我","Image","自我","Match","f","true","Formal",""
"","","","","","psychophysics","202","989610","0.0-9.0-0.0-0.91","891","","f","","","","","","","","","","","","","key","f","16.663024793387667","960","536","3_Stimuli/T_ambi40.png","他人","Word","他人","Match","f","true","Formal",""
"","","","","","psychophysics","203","991769","0.0-9.0-0.0-0.92","1007","","f","","","","","","","","","","","","","key","f","16.663604651162647","960","536","3_Stimuli/S_ambi40.png","朋友","Image","朋友","Match","f","true","Formal",""
"","","","","","psychophysics","204","994013","0.0-9.0-0.0-0.93","1090","","j","","","","","","","","","","","","","key","j","16.66364661654146","960","536","3_Stimuli/S_ambi40.png","朋友","Word","朋友","Match","f","false","Formal",""
"","","","","","psychophysics","205","995737","0.0-9.0-0.0-0.94","572","","f","","","","","","","","","","","","","key","f","16.6649509803917","960","536","3_Stimuli/T_ambi40.png","自我","Image","他人","Mismatch","j","false","Formal",""
"","","","","","psychophysics","206","998135","0.0-9.0-0.0-0.95","1247","","j","","","","","","","","","","","","","key","j","16.66372727272687","960","536","3_Stimuli/T_ambi40.png","朋友","Image","他人","Mismatch","j","true","Formal",""
"","","","","","psychophysics","207","1000073","0.0-9.0-0.0-0.96","786","","j","","","","","","","","","","","","","key","j","16.663939130434805","960","536","3_Stimuli/T_ambi40.png","自我","Image","他人","Mismatch","j","true","Formal",""
"","","","","","psychophysics","208","1001833","0.0-9.0-0.0-0.97","609","","f","","","","","","","","","","","","","key","f","16.66763809523767","960","536","3_Stimuli/S_ambi40.png","朋友","Word","朋友","Match","f","true","Formal",""
"","","","","","psychophysics","209","1003867","0.0-9.0-0.0-0.98","882","","j","","","","","","","","","","","","","key","j","16.664082644628515","960","536","3_Stimuli/S_ambi40.png","他人","Word","朋友","Mismatch","j","true","Formal",""
"","","","","","psychophysics","210","1005618","0.0-9.0-0.0-0.99","600","","f","","","","","","","","","","","","","key","f","16.663778846153246","960","536","3_Stimuli/C_ambi40.png","自我","Word","自我","Match","f","true","Formal",""
"","","","","","psychophysics","211","1007371","0.0-9.0-0.0-0.100","600","","f","","","","","","","","","","","","","key","f","16.664615384615338","960","536","3_Stimuli/C_ambi40.png","自我","Word","自我","Match","f","true","Formal",""
"","","","","","psychophysics","212","1009176","0.0-9.0-0.0-0.101","654","","j","","","","","","","","","","","","","key","j","16.663252336448537","960","536","3_Stimuli/T_ambi40.png","自我","Word","他人","Mismatch","j","true","Formal",""
"","","","","","psychophysics","213","1011103","0.0-9.0-0.0-0.102","776","","j","","","","","","","","","","","","","key","j","16.66376315789469","960","536","3_Stimuli/C_ambi40.png","朋友","Image","自我","Mismatch","j","true","Formal",""
"","","","","","psychophysics","214","1013806","0.0-9.0-0.0-0.103","null","","null","","","","","","","","","","","","","key","null","16.66409937888225","960","536","3_Stimuli/S_ambi40.png","他人","Image","朋友","Mismatch","j","false","Formal",""
"","","","","","psychophysics","215","1015770","0.0-9.0-0.0-0.104","812","","f","","","","","","","","","","","","","key","f","16.66394017094002","960","536","3_Stimuli/S_ambi40.png","朋友","Word","朋友","Match","f","true","Formal",""
"","","","","","psychophysics","216","1017536","0.0-9.0-0.0-0.105","615","","f","","","","","","","","","","","","","key","f","16.66312380952295","960","536","3_Stimuli/T_ambi40.png","他人","Word","他人","Match","f","true","Formal",""
"","","","","","psychophysics","217","1019464","0.0-9.0-0.0-0.106","776","","j","","","","","","","","","","","","","key","j","16.663817391304665","960","536","3_Stimuli/C_ambi40.png","朋友","Word","自我","Mismatch","j","true","Formal",""
"","","","","","psychophysics","218","1021520","0.0-9.0-0.0-0.107","904","","f","","","","","","","","","","","","","key","f","16.664040983606846","960","536","3_Stimuli/T_ambi40.png","他人","Image","他人","Match","f","true","Formal",""
"","","","","","psychophysics","219","1023356","0.0-9.0-0.0-0.108","686","","j","","","","","","","","","","","","","key","j","16.663825688073025","960","536","3_Stimuli/S_ambi40.png","朋友","Image","朋友","Match","f","false","Formal",""
"","","","","","psychophysics","220","1025314","0.0-9.0-0.0-0.109","807","","j","","","","","","","","","","","","","key","j","19.303742574256994","960","536","3_Stimuli/S_ambi40.png","自我","Word","朋友","Mismatch","j","true","Formal",""
"","","","","","psychophysics","221","1027835","0.0-9.0-0.0-0.110","1369","","j","","","","","","","","","","","","","key","j","16.663593333333264","960","536","3_Stimuli/C_ambi40.png","他人","Image","自我","Mismatch","j","true","Formal",""
"","","","","","psychophysics","222","1030064","0.0-9.0-0.0-0.111","1077","","j","","","","","","","","","","","","","key","j","16.663706766916754","960","536","3_Stimuli/S_ambi40.png","自我","Image","朋友","Mismatch","j","true","Formal",""
"","","","","","psychophysics","223","1031947","0.0-9.0-0.0-0.112","731","","f","","","","","","","","","","","","","key","f","16.66354464285749","960","536","3_Stimuli/C_ambi40.png","自我","Image","自我","Match","f","true","Formal",""
"","","","","","psychophysics","224","1034299","0.0-9.0-0.0-0.113","1201","","j","","","","","","","","","","","","","key","j","16.664942857143302","960","536","3_Stimuli/T_ambi40.png","他人","Word","他人","Match","f","false","Formal",""
"","","","","","psychophysics","225","1036210","0.0-9.0-0.0-0.114","759","","j","","","","","","","","","","","","","key","j","18.996419999999926","960","536","3_Stimuli/T_ambi40.png","朋友","Image","他人","Mismatch","j","true","Formal",""
"","","","","","psychophysics","226","1038298","0.0-9.0-0.0-0.115","935","","j","","","","","","","","","","","","","key","j","16.665467741935807","960","536","3_Stimuli/T_ambi40.png","朋友","Word","他人","Mismatch","j","true","Formal",""
"","","","","","psychophysics","227","1040162","0.0-9.0-0.0-0.116","713","","j","","","","","","","","","","","","","key","j","16.6675045045034","960","536","3_Stimuli/C_ambi40.png","他人","Word","自我","Mismatch","j","true","Formal",""
"","","","","","psychophysics","228","1042043","0.0-9.0-0.0-0.117","728","","f","","","","","","","","","","","","","key","f","16.66359821428653","960","536","3_Stimuli/T_ambi40.png","他人","Image","他人","Match","f","true","Formal",""
"","","","","","psychophysics","229","1043808","0.0-9.0-0.0-0.118","612","","f","","","","","","","","","","","","","key","f","16.664161904761567","960","536","3_Stimuli/C_ambi40.png","自我","Image","自我","Match","f","true","Formal",""
"","","","","","psychophysics","230","1045768","0.0-9.0-0.0-0.119","808","","f","","","","","","","","","","","","","key","f","16.663784482759215","960","536","3_Stimuli/S_ambi40.png","朋友","Image","朋友","Match","f","true","Formal",""
"","","","","","html-keyboard-response","231","1051486","0.0-9.0-1.0","5716","<style>.context{color:white; font-size: 35px; line-height:40px}</style>                        <div><p class='context'>您正确回答了85% 的试次。</p><p class='context'>您的平均反应时为821毫秒。</p><p> <div style = 'color: green'><按任意键进入休息></div></p>"," ","","","","","","","","","","","","","","","","","","","","","","","","","",""
"","","","","","html-button-response","232","1116470","0.0-9.0-2.0","64978","
                  <p>您当前还剩余5组实验</p>
                  <p>现在是休息时间，当您结束休息后，您可以点击 结束休息 按钮 继续</p>
                  <p>建议休息时间还剩余<span id=""iii"">60</span>秒</p>","0","","","","","","","","","","","","","","","","","","","","","","","","","",""
"","","","","","psychophysics","233","1118388","0.0-9.0-0.1-0.120","764","","f","","","","","","","","","","","","","key","f","16.664175438596622","960","536","3_Stimuli/C_ambi40.png","自我","Word","自我","Match","f","true","Formal",""
"","","","","","psychophysics","234","1120027","0.0-9.0-0.1-0.121","487","","f","","","","","","","","","","","","","key","f","16.663255102041518","960","536","3_Stimuli/C_ambi40.png","自我","Word","自我","Match","f","true","Formal",""
"","","","","","psychophysics","235","1121609","0.0-9.0-0.1-0.122","431","","f","","","","","","","","","","","","","key","f","16.66405376344068","960","536","3_Stimuli/C_ambi40.png","自我","Image","自我","Match","f","true","Formal",""
"","","","","","psychophysics","236","1123461","0.0-9.0-0.1-0.123","700","","j","","","","","","","","","","","","","key","j","16.663381818182426","960","536","3_Stimuli/T_ambi40.png","他人","Image","他人","Match","f","false","Formal",""
"","","","","","psychophysics","237","1125147","0.0-9.0-0.1-0.124","534","","f","","","","","","","","","","","","","key","f","16.6639599999995","960","536","3_Stimuli/T_ambi40.png","他人","Word","他人","Match","f","true","Formal",""
"","","","","","psychophysics","238","1127091","0.0-9.0-0.1-0.125","792","","j","","","","","","","","","","","","","key","j","16.663652173911586","960","536","3_Stimuli/C_ambi40.png","朋友","Word","自我","Mismatch","j","true","Formal",""
"","","","","","psychophysics","239","1129283","0.0-9.0-0.1-0.126","1040","","j","","","","","","","","","","","","","key","j","16.662923076922574","960","536","3_Stimuli/T_ambi40.png","朋友","Image","他人","Mismatch","j","true","Formal",""
"","","","","","psychophysics","240","1131047","0.0-9.0-0.1-0.127","612","","j","","","","","","","","","","","","","key","j","16.66355238095192","960","536","3_Stimuli/T_ambi40.png","自我","Word","他人","Mismatch","j","true","Formal",""
"","","","","","psychophysics","241","1132883","0.0-9.0-0.1-0.128","684","","j","","","","","","","","","","","","","key","j","16.664935779817608","960","536","3_Stimuli/T_ambi40.png","朋友","Word","他人","Mismatch","j","true","Formal",""
"","","","","","psychophysics","242","1134760","0.0-9.0-0.1-0.129","727","","j","","","","","","","","","","","","","key","j","16.66341071428698","960","536","3_Stimuli/T_ambi40.png","自我","Image","他人","Mismatch","j","true","Formal",""
"","","","","","psychophysics","243","1136368","0.0-9.0-0.1-0.130","457","","f","","","","","","","","","","","","","key","f","16.663526315791042","960","536","3_Stimuli/T_ambi40.png","他人","Image","他人","Match","f","true","Formal",""
"","","","","","psychophysics","244","1138239","0.0-9.0-0.1-0.131","719","","j","","","","","","","","","","","","","key","j","16.6656396396412","960","536","3_Stimuli/C_ambi40.png","他人","Image","自我","Mismatch","j","true","Formal",""
"","","","","","psychophysics","245","1139956","0.0-9.0-0.1-0.132","566","","f","","","","","","","","","","","","","key","f","16.663603960398106","960","536","3_Stimuli/S_ambi40.png","朋友","Image","朋友","Match","f","true","Formal",""
"","","","","","psychophysics","246","1141822","0.0-9.0-0.1-0.133","715","","j","","","","","","","","","","","","","key","j","16.663663636363875","960","536","3_Stimuli/C_ambi40.png","他人","Word","自我","Mismatch","j","true","Formal",""
"","","","","","psychophysics","247","1143902","0.0-9.0-0.1-0.134","929","","j","","","","","","","","","","","","","key","j","16.664113821138105","960","536","3_Stimuli/C_ambi40.png","朋友","Image","自我","Mismatch","j","true","Formal",""
"","","","","","psychophysics","248","1145925","0.0-9.0-0.1-0.135","872","","j","","","","","","","","","","","","","key","j","16.66428099173575","960","536","3_Stimuli/S_ambi40.png","他人","Word","朋友","Mismatch","j","true","Formal",""
"","","","","","psychophysics","249","1148011","0.0-9.0-0.1-0.136","934","","f","","","","","","","","","","","","","key","f","16.664080645162386","960","536","3_Stimuli/S_ambi40.png","朋友","Image","朋友","Match","f","true","Formal",""
"","","","","","psychophysics","250","1149945","0.0-9.0-0.1-0.137","783","","j","","","","","","","","","","","","","key","j","16.663686956521932","960","536","3_Stimuli/S_ambi40.png","自我","Word","朋友","Mismatch","j","true","Formal",""
"","","","","","psychophysics","251","1151759","0.0-9.0-0.1-0.138","663","","f","","","","","","","","","","","","","key","f","16.66469444444455","960","536","3_Stimuli/S_ambi40.png","朋友","Word","朋友","Match","f","true","Formal",""
"","","","","","psychophysics","252","1153874","0.0-9.0-0.1-0.139","962","","j","","","","","","","","","","","","","key","j","16.663777777779153","960","536","3_Stimuli/S_ambi40.png","自我","Image","朋友","Mismatch","j","true","Formal",""
"","","","","","psychophysics","253","1156294","0.0-9.0-0.1-0.140","1269","","j","","","","","","","","","","","","","key","j","16.664312500000555","960","536","3_Stimuli/S_ambi40.png","他人","Image","朋友","Mismatch","j","true","Formal",""
"","","","","","psychophysics","254","1158039","0.0-9.0-0.1-0.141","593","","f","","","","","","","","","","","","","key","f","18.241684210525925","960","536","3_Stimuli/C_ambi40.png","自我","Image","自我","Match","f","true","Formal",""
"","","","","","psychophysics","255","1159919","0.0-9.0-0.1-0.142","729","","f","","","","","","","","","","","","","key","f","16.664009009007582","960","536","3_Stimuli/S_ambi40.png","朋友","Word","朋友","Match","f","true","Formal",""
"","","","","","psychophysics","256","1161771","0.0-9.0-0.1-0.143","701","","f","","","","","","","","","","","","","key","f","16.663563636362298","960","536","3_Stimuli/T_ambi40.png","他人","Word","他人","Match","f","true","Formal",""
"","","","","","psychophysics","257","1163645","0.0-9.0-0.1-0.144","720","","f","","","","","","","","","","","","","key","f","16.66408108108098","960","536","3_Stimuli/T_ambi40.png","他人","Word","他人","Match","f","true","Formal",""
"","","","","","psychophysics","258","1165349","0.0-9.0-0.1-0.145","553","","f","","","","","","","","","","","","","key","f","16.663782178216827","960","536","3_Stimuli/C_ambi40.png","自我","Word","自我","Match","f","true","Formal",""
"","","","","","psychophysics","259","1167428","0.0-9.0-0.1-0.146","927","","f","","","","","","","","","","","","","key","f","16.663717741935304","960","536","3_Stimuli/S_ambi40.png","他人","Word","朋友","Mismatch","j","false","Formal",""
"","","","","","psychophysics","260","1169173","0.0-9.0-0.1-0.147","593","","f","","","","","","","","","","","","","key","f","16.663769230768175","960","536","3_Stimuli/S_ambi40.png","朋友","Word","朋友","Match","f","true","Formal",""
"","","","","","psychophysics","261","1171250","0.0-9.0-0.1-0.148","925","","j","","","","","","","","","","","","","key","j","16.66360975609623","960","536","3_Stimuli/C_ambi40.png","朋友","Word","自我","Mismatch","j","true","Formal",""
"","","","","","psychophysics","262","1173908","0.0-9.0-0.1-0.149","1506","","j","","","","","","","","","","","","","key","j","16.664170886076032","960","536","3_Stimuli/S_ambi40.png","自我","Word","朋友","Mismatch","j","true","Formal",""
"","","","","","psychophysics","263","1175673","0.0-9.0-0.1-0.150","614","","f","","","","","","","","","","","","","key","f","16.66406666666624","960","536","3_Stimuli/S_ambi40.png","自我","Image","朋友","Mismatch","j","false","Formal",""
"","","","","","psychophysics","264","1178075","0.0-9.0-0.1-0.151","1251","","j","","","","","","","","","","","","","key","j","16.663776223775702","960","536","3_Stimuli/C_ambi40.png","他人","Image","自我","Mismatch","j","true","Formal",""
"","","","","","psychophysics","265","1180188","0.0-9.0-0.1-0.152","961","","j","","","","","","","","","","","","","key","j","16.66343650793738","960","536","3_Stimuli/S_ambi40.png","他人","Image","朋友","Mismatch","j","true","Formal",""
"","","","","","psychophysics","266","1182232","0.0-9.0-0.1-0.153","893","","f","","","","","","","","","","","","","key","f","16.663892561983516","960","536","3_Stimuli/S_ambi40.png","朋友","Image","朋友","Match","f","true","Formal",""
"","","","","","psychophysics","267","1184939","0.0-9.0-0.1-0.154","null","","null","","","","","","","","","","","","","key","null","16.663571428571196","960","536","3_Stimuli/C_ambi40.png","朋友","Image","自我","Mismatch","j","false","Formal",""
"","","","","","psychophysics","268","1186785","0.0-9.0-0.1-0.155","694","","j","","","","","","","","","","","","","key","j","16.663745454544287","960","536","3_Stimuli/T_ambi40.png","自我","Word","他人","Mismatch","j","true","Formal",""
"","","","","","psychophysics","269","1189051","0.0-9.0-0.1-0.156","1113","","j","","","","","","","","","","","","","key","j","16.66422222222167","960","536","3_Stimuli/T_ambi40.png","他人","Image","他人","Match","f","false","Formal",""
"","","","","","psychophysics","270","1190702","0.0-9.0-0.1-0.157","500","","f","","","","","","","","","","","","","key","f","16.66320408163212","960","536","3_Stimuli/T_ambi40.png","他人","Word","他人","Match","f","true","Formal",""
"","","","","","psychophysics","271","1192528","0.0-9.0-0.1-0.158","674","","f","","","","","","","","","","","","","key","f","16.664398148147114","960","536","3_Stimuli/C_ambi40.png","自我","Image","自我","Match","f","true","Formal",""
"","","","","","psychophysics","272","1194385","0.0-9.0-0.1-0.159","706","","j","","","","","","","","","","","","","key","j","16.663045045045028","960","536","3_Stimuli/C_ambi40.png","他人","Word","自我","Mismatch","j","true","Formal",""
"","","","","","psychophysics","273","1196562","0.0-9.0-0.1-0.160","1025","","j","","","","","","","","","","","","","key","j","16.664395348838525","960","536","3_Stimuli/T_ambi40.png","自我","Image","他人","Mismatch","j","true","Formal",""
"","","","","","psychophysics","274","1198333","0.0-9.0-0.1-0.161","619","","f","","","","","","","","","","","","","key","f","16.66380000000021","960","536","3_Stimuli/S_ambi40.png","朋友","Word","朋友","Match","f","true","Formal",""
"","","","","","psychophysics","275","1200063","0.0-9.0-0.1-0.162","579","","f","","","","","","","","","","","","","key","f","16.663805825244726","960","536","3_Stimuli/C_ambi40.png","自我","Word","自我","Match","f","true","Formal",""
"","","","","","psychophysics","276","1201918","0.0-9.0-0.1-0.163","702","","j","","","","","","","","","","","","","key","j","16.66430000000083","960","536","3_Stimuli/T_ambi40.png","朋友","Image","他人","Mismatch","j","true","Formal",""
"","","","","","psychophysics","277","1203616","0.0-9.0-0.1-0.164","546","","f","","","","","","","","","","","","","key","f","16.663920792080184","960","536","3_Stimuli/C_ambi40.png","自我","Image","自我","Match","f","true","Formal",""
"","","","","","psychophysics","278","1205579","0.0-9.0-0.1-0.165","812","","f","","","","","","","","","","","","","key","f","16.663717948718187","960","536","3_Stimuli/T_ambi40.png","他人","Image","他人","Match","f","true","Formal",""
"","","","","","psychophysics","279","1207441","0.0-9.0-0.1-0.166","711","","j","","","","","","","","","","","","","key","j","16.66400000000034","960","536","3_Stimuli/T_ambi40.png","朋友","Word","他人","Mismatch","j","true","Formal",""
"","","","","","psychophysics","280","1209370","0.0-9.0-0.1-0.167","776","","f","","","","","","","","","","","","","key","f","16.664243478261177","960","536","3_Stimuli/S_ambi40.png","朋友","Image","朋友","Match","f","true","Formal",""
"","","","","","psychophysics","281","1211251","0.0-9.0-0.1-0.168","730","","f","","","","","","","","","","","","","key","f","17.28014814814863","960","536","3_Stimuli/S_ambi40.png","他人","Word","朋友","Mismatch","j","false","Formal",""
"","","","","","psychophysics","282","1213429","0.0-9.0-0.1-0.169","1027","","f","","","","","","","","","","","","","key","f","16.66549230769205","960","536","3_Stimuli/S_ambi40.png","朋友","Word","朋友","Match","f","true","Formal",""
"","","","","","psychophysics","283","1215487","0.0-9.0-0.1-0.170","906","","j","","","","","","","","","","","","","key","j","16.6640163934427","960","536","3_Stimuli/T_ambi40.png","自我","Word","他人","Mismatch","j","true","Formal",""
"","","","","","psychophysics","284","1217856","0.0-9.0-0.1-0.171","1218","","f","","","","","","","","","","","","","key","f","16.663872340424913","960","536","3_Stimuli/T_ambi40.png","他人","Word","他人","Match","f","true","Formal",""
"","","","","","psychophysics","285","1220511","0.0-9.0-0.1-0.172","1503","","j","","","","","","","","","","","","","key","j","16.66400628930848","960","536","3_Stimuli/S_ambi40.png","自我","Word","朋友","Mismatch","j","true","Formal",""
"","","","","","psychophysics","286","1222355","0.0-9.0-0.1-0.173","691","","f","","","","","","","","","","","","","key","f","16.66428440367085","960","536","3_Stimuli/C_ambi40.png","自我","Image","自我","Match","f","true","Formal",""
"","","","","","psychophysics","287","1224108","0.0-9.0-0.1-0.174","601","","f","","","","","","","","","","","","","key","f","16.664105769231146","960","536","3_Stimuli/C_ambi40.png","自我","Word","自我","Match","f","true","Formal",""
"","","","","","psychophysics","288","1226183","0.0-9.0-0.1-0.175","924","","f","","","","","","","","","","","","","key","f","16.66486178861734","960","536","3_Stimuli/T_ambi40.png","他人","Word","他人","Match","f","true","Formal",""
"","","","","","psychophysics","289","1228546","0.0-9.0-0.1-0.176","1210","","f","","","","","","","","","","","","","key","f","16.662964539006285","960","536","3_Stimuli/C_ambi40.png","朋友","Image","自我","Mismatch","j","false","Formal",""
"","","","","","psychophysics","290","1230743","0.0-9.0-0.1-0.177","1044","","j","","","","","","","","","","","","","key","j","16.661458015267716","960","536","3_Stimuli/C_ambi40.png","他人","Image","自我","Mismatch","j","true","Formal",""
"","","","","","psychophysics","291","1232755","0.0-9.0-0.1-0.178","859","","j","","","","","","","","","","","","","key","j","16.66434453781342","960","536","3_Stimuli/C_ambi40.png","朋友","Word","自我","Mismatch","j","true","Formal",""
"","","","","","psychophysics","292","1235068","0.0-9.0-0.1-0.179","1162","","f","","","","","","","","","","","","","key","f","16.663948905110413","960","536","3_Stimuli/T_ambi40.png","他人","Image","他人","Match","f","true","Formal",""
"","","","","","psychophysics","293","1236978","0.0-9.0-0.1-0.180","759","","j","","","","","","","","","","","","","key","j","16.662876106194936","960","536","3_Stimuli/T_ambi40.png","朋友","Image","他人","Mismatch","j","true","Formal",""
"","","","","","psychophysics","294","1238679","0.0-9.0-0.1-0.181","550","","f","","","","","","","","","","","","","key","f","16.66421782178343","960","536","3_Stimuli/C_ambi40.png","自我","Word","自我","Match","f","true","Formal",""
"","","","","","psychophysics","295","1240677","0.0-9.0-0.1-0.182","847","","j","","","","","","","","","","","","","key","j","16.663848739495","960","536","3_Stimuli/T_ambi40.png","他人","Image","他人","Match","f","false","Formal",""
"","","","","","psychophysics","296","1242851","0.0-9.0-0.1-0.183","1023","","f","","","","","","","","","","","","","key","f","16.66531007751902","960","536","3_Stimuli/S_ambi40.png","朋友","Word","朋友","Match","f","true","Formal",""
"","","","","","psychophysics","297","1245380","0.0-9.0-0.1-0.184","1377","","j","","","","","","","","","","","","","key","j","16.662774834436494","960","536","3_Stimuli/S_ambi40.png","自我","Image","朋友","Mismatch","j","true","Formal",""
"","","","","","psychophysics","298","1247238","0.0-9.0-0.1-0.185","705","","f","","","","","","","","","","","","","key","f","16.6635675675672","960","536","3_Stimuli/S_ambi40.png","朋友","Image","朋友","Match","f","true","Formal",""
"","","","","","psychophysics","299","1249254","0.0-9.0-0.1-0.186","865","","j","","","","","","","","","","","","","key","j","16.664633333331828","960","536","3_Stimuli/T_ambi40.png","朋友","Word","他人","Mismatch","j","true","Formal",""
"","","","","","psychophysics","300","1251436","0.0-9.0-0.1-0.187","1029","","j","","","","","","","","","","","","","key","j","16.662953488371702","960","536","3_Stimuli/S_ambi40.png","他人","Image","朋友","Mismatch","j","true","Formal",""
"","","","","","psychophysics","301","1253153","0.0-9.0-0.1-0.188","567","","f","","","","","","","","","","","","","key","f","16.664186274509547","960","536","3_Stimuli/C_ambi40.png","自我","Image","自我","Match","f","true","Formal",""
"","","","","","psychophysics","302","1255256","0.0-9.0-0.1-0.189","952","","j","","","","","","","","","","","","","key","j","16.663664000000804","960","536","3_Stimuli/T_ambi40.png","自我","Image","他人","Mismatch","j","true","Formal",""
"","","","","","psychophysics","303","1257308","0.0-9.0-0.1-0.190","900","","j","","","","","","","","","","","","","key","j","16.664172131148334","960","536","3_Stimuli/C_ambi40.png","他人","Word","自我","Mismatch","j","true","Formal",""
"","","","","","psychophysics","304","1259088","0.0-9.0-0.1-0.191","628","","f","","","","","","","","","","","","","key","f","16.663547169812517","960","536","3_Stimuli/S_ambi40.png","朋友","Image","朋友","Match","f","true","Formal",""
"","","","","","psychophysics","305","1260917","0.0-9.0-0.1-0.192","676","","f","","","","","","","","","","","","","key","f","16.665027777776466","960","536","3_Stimuli/C_ambi40.png","朋友","Word","自我","Mismatch","j","false","Formal",""
"","","","","","psychophysics","306","1262864","0.0-9.0-0.1-0.193","797","","j","","","","","","","","","","","","","key","j","16.662634782608517","960","536","3_Stimuli/S_ambi40.png","朋友","Image","朋友","Match","f","false","Formal",""
"","","","","","psychophysics","307","1264767","0.0-9.0-0.1-0.194","752","","f","","","","","","","","","","","","","key","f","16.664008849558","960","536","3_Stimuli/T_ambi40.png","他人","Word","他人","Match","f","true","Formal",""
"","","","","","psychophysics","308","1267070","0.0-9.0-0.1-0.195","1151","","j","","","","","","","","","","","","","key","j","16.663868613138348","960","536","3_Stimuli/T_ambi40.png","自我","Word","他人","Mismatch","j","true","Formal",""
"","","","","","psychophysics","309","1268914","0.0-9.0-0.1-0.196","693","","j","","","","","","","","","","","","","key","j","16.663055045869832","960","536","3_Stimuli/T_ambi40.png","朋友","Word","他人","Mismatch","j","true","Formal",""
"","","","","","psychophysics","310","1270620","0.0-9.0-0.1-0.197","554","","f","","","","","","","","","","","","","key","f","16.663941176471244","960","536","3_Stimuli/C_ambi40.png","自我","Word","自我","Match","f","true","Formal",""
"","","","","","psychophysics","311","1272609","0.0-9.0-0.1-0.198","838","","f","","","","","","","","","","","","","key","f","16.663516949151912","960","536","3_Stimuli/T_ambi40.png","他人","Image","他人","Match","f","true","Formal",""
"","","","","","psychophysics","312","1274345","0.0-9.0-0.1-0.199","585","","f","","","","","","","","","","","","","key","f","16.6636601941755","960","536","3_Stimuli/C_ambi40.png","自我","Image","自我","Match","f","true","Formal",""
"","","","","","psychophysics","313","1276251","0.0-9.0-0.1-0.200","754","","j","","","","","","","","","","","","","key","j","16.6636491228087","960","536","3_Stimuli/S_ambi40.png","自我","Word","朋友","Mismatch","j","true","Formal",""
"","","","","","psychophysics","314","1277926","0.0-9.0-0.1-0.201","523","","f","","","","","","","","","","","","","key","f","16.663454545454847","960","536","3_Stimuli/S_ambi40.png","朋友","Word","朋友","Match","f","true","Formal",""
"","","","","","psychophysics","315","1279674","0.0-9.0-0.1-0.202","597","","f","","","","","","","","","","","","","key","f","16.66527884615397","960","536","3_Stimuli/C_ambi40.png","自我","Word","自我","Match","f","true","Formal",""
"","","","","","psychophysics","316","1281653","0.0-9.0-0.1-0.203","828","","j","","","","","","","","","","","","","key","j","16.664186440676577","960","536","3_Stimuli/S_ambi40.png","他人","Word","朋友","Mismatch","j","true","Formal",""
"","","","","","psychophysics","317","1283511","0.0-9.0-0.1-0.204","706","","j","","","","","","","","","","","","","key","j","16.663581818181346","960","536","3_Stimuli/C_ambi40.png","他人","Word","自我","Mismatch","j","true","Formal",""
"","","","","","psychophysics","318","1286155","0.0-9.0-0.1-0.205","1494","","f","","","","","","","","","","","","","key","f","18.541140845070043","960","536","3_Stimuli/S_ambi40.png","朋友","Word","朋友","Match","f","true","Formal",""
"","","","","","psychophysics","319","1287845","0.0-9.0-0.1-0.206","539","","f","","","","","","","","","","","","","key","f","16.66313000000082","960","536","3_Stimuli/S_ambi40.png","朋友","Image","朋友","Match","f","true","Formal",""
"","","","","","psychophysics","320","1290070","0.0-9.0-0.1-0.207","1074","","j","","","","","","","","","","","","","key","j","16.663803030302834","960","536","3_Stimuli/T_ambi40.png","自我","Image","他人","Mismatch","j","true","Formal",""
"","","","","","psychophysics","321","1292048","0.0-9.0-0.1-0.208","825","","j","","","","","","","","","","","","","key","j","16.664966101695043","960","536","3_Stimuli/C_ambi40.png","朋友","Image","自我","Mismatch","j","true","Formal",""
"","","","","","psychophysics","322","1293894","0.0-9.0-0.1-0.209","694","","f","","","","","","","","","","","","","key","f","16.663577981649922","960","536","3_Stimuli/C_ambi40.png","自我","Image","自我","Match","f","true","Formal",""
"","","","","","psychophysics","323","1296273","0.0-9.0-0.1-0.210","1227","","j","","","","","","","","","","","","","key","j","16.66371631205531","960","536","3_Stimuli/C_ambi40.png","他人","Image","自我","Mismatch","j","true","Formal",""
"","","","","","psychophysics","324","1298162","0.0-9.0-0.1-0.211","738","","j","","","","","","","","","","","","","key","j","16.663339285714237","960","536","3_Stimuli/T_ambi40.png","朋友","Image","他人","Mismatch","j","true","Formal",""
"","","","","","psychophysics","325","1300221","0.0-9.0-0.1-0.212","908","","j","","","","","","","","","","","","","key","j","16.664172131146426","960","536","3_Stimuli/S_ambi40.png","自我","Image","朋友","Mismatch","j","true","Formal",""
"","","","","","psychophysics","326","1302123","0.0-9.0-0.1-0.213","751","","f","","","","","","","","","","","","","key","f","16.663690265486494","960","536","3_Stimuli/T_ambi40.png","他人","Word","他人","Match","f","true","Formal",""
"","","","","","psychophysics","327","1304059","0.0-9.0-0.1-0.214","784","","f","","","","","","","","","","","","","key","f","16.66321739130451","960","536","3_Stimuli/T_ambi40.png","他人","Image","他人","Match","f","true","Formal",""
"","","","","","psychophysics","328","1305856","0.0-9.0-0.1-0.215","645","","j","","","","","","","","","","","","","key","j","16.663691588786264","960","536","3_Stimuli/S_ambi40.png","他人","Image","朋友","Mismatch","j","true","Formal",""
"","","","","","psychophysics","329","1307733","0.0-9.0-0.1-0.216","725","","f","","","","","","","","","","","","","key","f","16.66400000000015","960","536","3_Stimuli/C_ambi40.png","自我","Image","自我","Match","f","true","Formal",""
"","","","","","psychophysics","330","1309732","0.0-9.0-0.1-0.217","847","","j","","","","","","","","","","","","","key","j","16.663563025211367","960","536","3_Stimuli/C_ambi40.png","朋友","Image","自我","Mismatch","j","true","Formal",""
"","","","","","psychophysics","331","1311447","0.0-9.0-0.1-0.218","565","","f","","","","","","","","","","","","","key","f","16.66364705882163","960","536","3_Stimuli/C_ambi40.png","自我","Image","自我","Match","f","true","Formal",""
"","","","","","psychophysics","332","1313632","0.0-9.0-0.1-0.219","1032","","f","","","","","","","","","","","","","key","f","16.665084615385588","960","536","3_Stimuli/S_ambi40.png","朋友","Word","朋友","Match","f","true","Formal",""
"","","","","","psychophysics","333","1315607","0.0-9.0-0.1-0.220","823","","f","","","","","","","","","","","","","key","f","16.66341880341777","960","536","3_Stimuli/S_ambi40.png","朋友","Word","朋友","Match","f","true","Formal",""
"","","","","","psychophysics","334","1318113","0.0-9.0-0.1-0.221","1354","","f","","","","","","","","","","","","","key","f","16.66400000000062","960","536","3_Stimuli/T_ambi40.png","他人","Image","他人","Match","f","true","Formal",""
"","","","","","psychophysics","335","1319954","0.0-9.0-0.1-0.222","689","","j","","","","","","","","","","","","","key","j","16.663697247705294","960","536","3_Stimuli/T_ambi40.png","朋友","Image","他人","Mismatch","j","true","Formal",""
"","","","","","psychophysics","336","1321950","0.0-9.0-0.1-0.223","844","","j","","","","","","","","","","","","","key","j","16.663554621848647","960","536","3_Stimuli/S_ambi40.png","自我","Image","朋友","Mismatch","j","true","Formal",""
"","","","","","psychophysics","337","1323801","0.0-9.0-0.1-0.224","699","","f","","","","","","","","","","","","","key","f","16.664427272725682","960","536","3_Stimuli/T_ambi40.png","他人","Word","他人","Match","f","true","Formal",""
"","","","","","psychophysics","338","1325450","0.0-9.0-0.1-0.225","497","","f","","","","","","","","","","","","","key","f","16.6628265306116","960","536","3_Stimuli/C_ambi40.png","自我","Word","自我","Match","f","true","Formal",""
"","","","","","psychophysics","339","1327286","0.0-9.0-0.1-0.226","685","","f","","","","","","","","","","","","","key","f","16.816870370370992","960","536","3_Stimuli/S_ambi40.png","朋友","Image","朋友","Match","f","true","Formal",""
"","","","","","psychophysics","340","1329168","0.0-9.0-0.1-0.227","731","","j","","","","","","","","","","","","","key","j","16.663544642855413","960","536","3_Stimuli/S_ambi40.png","他人","Word","朋友","Mismatch","j","true","Formal",""
"","","","","","psychophysics","341","1330909","0.0-9.0-0.1-0.228","591","","f","","","","","","","","","","","","","key","f","16.66326923077129","960","536","3_Stimuli/C_ambi40.png","朋友","Word","自我","Mismatch","j","false","Formal",""
"","","","","","psychophysics","342","1332827","0.0-9.0-0.1-0.229","765","","j","","","","","","","","","","","","","key","j","16.66375438596547","960","536","3_Stimuli/T_ambi40.png","自我","Word","他人","Mismatch","j","true","Formal",""
"","","","","","psychophysics","343","1334670","0.0-9.0-0.1-0.230","690","","f","","","","","","","","","","","","","key","f","16.66518348623964","960","536","3_Stimuli/C_ambi40.png","他人","Image","自我","Mismatch","j","false","Formal",""
"","","","","","psychophysics","344","1336454","0.0-9.0-0.1-0.231","632","","j","","","","","","","","","","","","","key","j","16.66311320754752","960","536","3_Stimuli/T_ambi40.png","他人","Word","他人","Match","f","false","Formal",""
"","","","","","psychophysics","345","1338334","0.0-9.0-0.1-0.232","729","","j","","","","","","","","","","","","","key","j","16.664027027026457","960","536","3_Stimuli/T_ambi40.png","自我","Image","他人","Mismatch","j","true","Formal",""
"","","","","","psychophysics","346","1340129","0.0-9.0-0.1-0.233","643","","j","","","","","","","","","","","","","key","j","16.663514018691988","960","536","3_Stimuli/T_ambi40.png","朋友","Word","他人","Mismatch","j","true","Formal",""
"","","","","","psychophysics","347","1341751","0.0-9.0-0.1-0.234","471","","f","","","","","","","","","","","","","key","f","16.663781249999982","960","536","3_Stimuli/S_ambi40.png","朋友","Image","朋友","Match","f","true","Formal",""
"","","","","","psychophysics","348","1343543","0.0-9.0-0.1-0.235","641","","j","","","","","","","","","","","","","key","j","16.664785046728817","960","536","3_Stimuli/C_ambi40.png","他人","Word","自我","Mismatch","j","true","Formal",""
"","","","","","psychophysics","349","1345414","0.0-9.0-0.1-0.236","719","","j","","","","","","","","","","","","","key","j","16.66272972973047","960","536","3_Stimuli/S_ambi40.png","他人","Image","朋友","Mismatch","j","true","Formal",""
"","","","","","psychophysics","350","1347116","0.0-9.0-0.1-0.237","551","","f","","","","","","","","","","","","","key","f","16.6641485148506","960","536","3_Stimuli/S_ambi40.png","自我","Word","朋友","Mismatch","j","false","Formal",""
"","","","","","psychophysics","351","1349215","0.0-9.0-0.1-0.238","946","","j","","","","","","","","","","","","","key","j","19.28646296296372","960","536","3_Stimuli/T_ambi40.png","他人","Image","他人","Match","f","false","Formal",""
"","","","","","psychophysics","352","1351056","0.0-9.0-0.1-0.239","688","","f","","","","","","","","","","","","","key","f","16.663699999999846","960","536","3_Stimuli/C_ambi40.png","自我","Word","自我","Match","f","true","Formal",""
"","","","","","html-keyboard-response","353","1354569","0.0-9.0-1.1","3511","<style>.context{color:white; font-size: 35px; line-height:40px}</style>                        <div><p class='context'>您正确回答了88% 的试次。</p><p class='context'>您的平均反应时为798毫秒。</p><p> <div style = 'color: green'><按任意键进入休息></div></p>"," ","","","","","","","","","","","","","","","","","","","","","","","","","",""
"","","","","","html-button-response","354","1436320","0.0-9.0-2.1","81746","
                  <p>您当前还剩余4组实验</p>
                  <p>现在是休息时间，当您结束休息后，您可以点击 结束休息 按钮 继续</p>
                  <p>建议休息时间还剩余<span id=""iii"">60</span>秒</p>","0","","","","","","","","","","","","","","","","","","","","","","","","","",""
"","","","","","psychophysics","355","1438370","0.0-9.0-0.2-0.240","897","","f","","","","","","","","","","","","","key","f","16.6640163934427","960","536","3_Stimuli/T_ambi40.png","他人","Image","他人","Match","f","true","Formal",""
"","","","","","psychophysics","356","1440372","0.0-9.0-0.2-0.241","850","","j","","","","","","","","","","","","","key","j","16.66435294117614","960","536","3_Stimuli/C_ambi40.png","朋友","Word","自我","Mismatch","j","true","Formal",""
"","","","","","psychophysics","357","1442230","0.0-9.0-0.2-0.242","705","","f","","","","","","","","","","","","","key","f","16.663881818181835","960","536","3_Stimuli/T_ambi40.png","自我","Word","他人","Mismatch","j","false","Formal",""
"","","","","","psychophysics","358","1443966","0.0-9.0-0.2-0.243","585","","f","","","","","","","","","","","","","key","f","16.665223300970133","960","536","3_Stimuli/C_ambi40.png","自我","Image","自我","Match","f","true","Formal",""
"","","","","","psychophysics","359","1445992","0.0-9.0-0.2-0.244","874","","j","","","","","","","","","","","","","key","j","16.663799999999657","960","536","3_Stimuli/S_ambi40.png","自我","Image","朋友","Mismatch","j","true","Formal",""
"","","","","","psychophysics","360","1447965","0.0-9.0-0.2-0.245","821","","j","","","","","","","","","","","","","key","j","16.66417948717976","960","536","3_Stimuli/C_ambi40.png","他人","Image","自我","Mismatch","j","true","Formal",""
"","","","","","psychophysics","361","1449649","0.0-9.0-0.2-0.246","533","","f","","","","","","","","","","","","","key","f","16.665180000001566","960","536","3_Stimuli/C_ambi40.png","自我","Image","自我","Match","f","true","Formal",""
"","","","","","psychophysics","362","1451279","0.0-9.0-0.2-0.247","478","","f","","","","","","","","","","","","","key","f","16.66231958763002","960","536","3_Stimuli/C_ambi40.png","自我","Word","自我","Match","f","true","Formal",""
"","","","","","psychophysics","363","1453285","0.0-9.0-0.2-0.248","855","","j","","","","","","","","","","","","","key","j","16.663394957982362","960","536","3_Stimuli/S_ambi40.png","他人","Image","朋友","Mismatch","j","true","Formal",""
"","","","","","psychophysics","364","1455046","0.0-9.0-0.2-0.249","610","","j","","","","","","","","","","","","","key","j","16.663817307692415","960","536","3_Stimuli/S_ambi40.png","他人","Word","朋友","Mismatch","j","true","Formal",""
"","","","","","psychophysics","365","1456845","0.0-9.0-0.2-0.250","649","","f","","","","","","","","","","","","","key","f","16.663299065420542","960","536","3_Stimuli/S_ambi40.png","朋友","Image","朋友","Match","f","true","Formal",""
"","","","","","psychophysics","366","1458501","0.0-9.0-0.2-0.251","505","","j","","","","","","","","","","","","","key","j","16.663656565657053","960","536","3_Stimuli/T_ambi40.png","朋友","Word","他人","Mismatch","j","true","Formal",""
"","","","","","psychophysics","367","1460304","0.0-9.0-0.2-0.252","650","","j","","","","","","","","","","","","","key","j","16.98130476190265","960","536","3_Stimuli/C_ambi40.png","他人","Word","自我","Mismatch","j","true","Formal",""
"","","","","","psychophysics","368","1461982","0.0-9.0-0.2-0.253","526","","j","","","","","","","","","","","","","key","j","16.66342424242428","960","536","3_Stimuli/T_ambi40.png","自我","Image","他人","Mismatch","j","true","Formal",""
"","","","","","psychophysics","369","1463892","0.0-9.0-0.2-0.254","759","","j","","","","","","","","","","","","","key","j","16.664097345133303","960","536","3_Stimuli/C_ambi40.png","朋友","Image","自我","Mismatch","j","true","Formal",""
"","","","","","psychophysics","370","1465617","0.0-9.0-0.2-0.255","574","","j","","","","","","","","","","","","","key","j","16.66373786407758","960","536","3_Stimuli/T_ambi40.png","他人","Word","他人","Match","f","false","Formal",""
"","","","","","psychophysics","371","1467604","0.0-9.0-0.2-0.256","836","","f","","","","","","","","","","","","","key","f","16.663601694914703","960","536","3_Stimuli/T_ambi40.png","他人","Word","他人","Match","f","true","Formal",""
"","","","","","psychophysics","372","1469254","0.0-9.0-0.2-0.257","498","","f","","","","","","","","","","","","","key","f","16.66334693877701","960","536","3_Stimuli/C_ambi40.png","自我","Word","自我","Match","f","true","Formal",""
"","","","","","psychophysics","373","1471278","0.0-9.0-0.2-0.258","873","","f","","","","","","","","","","","","","key","f","16.663658333333053","960","536","3_Stimuli/S_ambi40.png","朋友","Image","朋友","Match","f","true","Formal",""
"","","","","","psychophysics","374","1472978","0.0-9.0-0.2-0.259","548","","f","","","","","","","","","","","","","key","f","16.665267326733062","960","536","3_Stimuli/S_ambi40.png","朋友","Word","朋友","Match","f","true","Formal",""
"","","","","","psychophysics","375","1474852","0.0-9.0-0.2-0.260","723","","j","","","","","","","","","","","","","key","j","16.664357142857625","960","536","3_Stimuli/T_ambi40.png","朋友","Image","他人","Mismatch","j","true","Formal",""
"","","","","","psychophysics","376","1476948","0.0-9.0-0.2-0.261","943","","f","","","","","","","","","","","","","key","f","16.663271999999882","960","536","3_Stimuli/T_ambi40.png","他人","Image","他人","Match","f","true","Formal",""
"","","","","","psychophysics","377","1478736","0.0-9.0-0.2-0.262","635","","f","","","","","","","","","","","","","key","f","16.663896226416394","960","536","3_Stimuli/S_ambi40.png","朋友","Word","朋友","Match","f","true","Formal",""
"","","","","","psychophysics","378","1480499","0.0-9.0-0.2-0.263","612","","j","","","","","","","","","","","","","key","j","16.66533333333431","960","536","3_Stimuli/S_ambi40.png","自我","Word","朋友","Mismatch","j","true","Formal",""
"","","","","","psychophysics","379","1482186","0.0-9.0-0.2-0.264","532","","f","","","","","","","","","","","","","key","f","16.663019999999086","960","536","3_Stimuli/C_ambi40.png","自我","Image","自我","Match","f","true","Formal",""
"","","","","","psychophysics","380","1484110","0.0-9.0-0.2-0.265","772","","f","","","","","","","","","","","","","key","f","16.664596491227776","960","536","3_Stimuli/S_ambi40.png","朋友","Image","朋友","Match","f","true","Formal",""
"","","","","","psychophysics","381","1485892","0.0-9.0-0.2-0.266","629","","f","","","","","","","","","","","","","key","f","16.66391509433962","960","536","3_Stimuli/S_ambi40.png","自我","Word","朋友","Mismatch","j","false","Formal",""
"","","","","","psychophysics","382","1487834","0.0-9.0-0.2-0.267","791","","j","","","","","","","","","","","","","key","j","16.660931034483305","960","536","3_Stimuli/T_ambi40.png","朋友","Image","他人","Mismatch","j","true","Formal",""
"","","","","","psychophysics","383","1489877","0.0-9.0-0.2-0.268","891","","j","","","","","","","","","","","","","key","j","16.663834710743988","960","536","3_Stimuli/T_ambi40.png","自我","Image","他人","Mismatch","j","true","Formal",""
"","","","","","psychophysics","384","1491637","0.0-9.0-0.2-0.269","609","","f","","","","","","","","","","","","","key","f","16.665076923075294","960","536","3_Stimuli/S_ambi40.png","他人","Image","朋友","Mismatch","j","false","Formal",""
"","","","","","psychophysics","385","1493498","0.0-9.0-0.2-0.270","711","","j","","","","","","","","","","","","","key","j","16.66450450450459","960","536","3_Stimuli/C_ambi40.png","朋友","Image","自我","Mismatch","j","true","Formal",""
"","","","","","psychophysics","386","1495082","0.0-9.0-0.2-0.271","432","","f","","","","","","","","","","","","","key","f","16.664085106384206","960","536","3_Stimuli/C_ambi40.png","自我","Image","自我","Match","f","true","Formal",""
"","","","","","psychophysics","387","1497334","0.0-9.0-0.2-0.272","1100","","f","","","","","","","","","","","","","key","f","16.662082089552545","960","536","3_Stimuli/T_ambi40.png","他人","Word","他人","Match","f","true","Formal",""
"","","","","","psychophysics","388","1499163","0.0-9.0-0.2-0.273","676","","j","","","","","","","","","","","","","key","j","16.663825688074095","960","536","3_Stimuli/C_ambi40.png","朋友","Word","自我","Mismatch","j","true","Formal",""
"","","","","","psychophysics","389","1500872","0.0-9.0-0.2-0.274","556","","f","","","","","","","","","","","","","key","f","16.663821782176797","960","536","3_Stimuli/C_ambi40.png","自我","Word","自我","Match","f","true","Formal",""
"","","","","","psychophysics","390","1502755","0.0-9.0-0.2-0.275","732","","f","","","","","","","","","","","","","key","f","16.662882882881455","960","536","3_Stimuli/S_ambi40.png","朋友","Image","朋友","Match","f","true","Formal",""
"","","","","","psychophysics","391","1504696","0.0-9.0-0.2-0.276","788","","j","","","","","","","","","","","","","key","j","16.66471551724003","960","536","3_Stimuli/S_ambi40.png","自我","Image","朋友","Mismatch","j","true","Formal",""
"","","","","","psychophysics","392","1506602","0.0-9.0-0.2-0.277","754","","f","","","","","","","","","","","","","key","f","16.663318584071455","960","536","3_Stimuli/S_ambi40.png","他人","Word","朋友","Mismatch","j","false","Formal",""
"","","","","","psychophysics","393","1508394","0.0-9.0-0.2-0.278","641","","f","","","","","","","","","","","","","key","f","16.663850467288693","960","536","3_Stimuli/T_ambi40.png","他人","Image","他人","Match","f","true","Formal",""
"","","","","","psychophysics","394","1510237","0.0-9.0-0.2-0.279","691","","f","","","","","","","","","","","","","key","f","16.66431192660687","960","536","3_Stimuli/C_ambi40.png","他人","Image","自我","Mismatch","j","false","Formal",""
"","","","","","psychophysics","395","1512038","0.0-9.0-0.2-0.280","648","","f","","","","","","","","","","","","","key","f","16.663757009344682","960","536","3_Stimuli/S_ambi40.png","朋友","Word","朋友","Match","f","true","Formal",""
"","","","","","psychophysics","396","1513796","0.0-9.0-0.2-0.281","605","","f","","","","","","","","","","","","","key","f","16.66438095238104","960","536","3_Stimuli/T_ambi40.png","他人","Image","他人","Match","f","true","Formal",""
"","","","","","psychophysics","397","1515477","0.0-9.0-0.2-0.282","530","","j","","","","","","","","","","","","","key","j","16.663619999999646","960","536","3_Stimuli/T_ambi40.png","自我","Word","他人","Mismatch","j","true","Formal",""
"","","","","","psychophysics","398","1517342","0.0-9.0-0.2-0.283","713","","j","","","","","","","","","","","","","key","j","16.663774774774808","960","536","3_Stimuli/C_ambi40.png","他人","Word","自我","Mismatch","j","true","Formal",""
"","","","","","psychophysics","399","1519392","0.0-9.0-0.2-0.284","898","","f","","","","","","","","","","","","","key","f","16.66080327868866","960","536","3_Stimuli/C_ambi40.png","自我","Word","自我","Match","f","true","Formal",""
"","","","","","psychophysics","400","1521462","0.0-9.0-0.2-0.285","918","","f","","","","","","","","","","","","","key","f","16.663560975609894","960","536","3_Stimuli/T_ambi40.png","他人","Word","他人","Match","f","true","Formal",""
"","","","","","psychophysics","401","1523231","0.0-9.0-0.2-0.286","617","","f","","","","","","","","","","","","","key","f","16.663933333333226","960","536","3_Stimuli/S_ambi40.png","朋友","Word","朋友","Match","f","true","Formal",""
"","","","","","psychophysics","402","1525020","0.0-9.0-0.2-0.287","637","","j","","","","","","","","","","","","","key","j","16.663188679244826","960","536","3_Stimuli/T_ambi40.png","朋友","Word","他人","Mismatch","j","true","Formal",""
"","","","","","psychophysics","403","1527010","0.0-9.0-0.2-0.288","838","","f","","","","","","","","","","","","","key","f","16.662781512605402","960","536","3_Stimuli/T_ambi40.png","他人","Image","他人","Match","f","true","Formal",""
"","","","","","psychophysics","404","1528794","0.0-9.0-0.2-0.289","633","","f","","","","","","","","","","","","","key","f","16.663575471697357","960","536","3_Stimuli/S_ambi40.png","朋友","Image","朋友","Match","f","true","Formal",""
"","","","","","psychophysics","405","1530585","0.0-9.0-0.2-0.290","640","","j","","","","","","","","","","","","","key","j","16.663500000000052","960","536","3_Stimuli/C_ambi40.png","他人","Word","自我","Mismatch","j","true","Formal",""
"","","","","","psychophysics","406","1532291","0.0-9.0-0.2-0.291","555","","f","","","","","","","","","","","","","key","f","16.663529411764067","960","536","3_Stimuli/T_ambi40.png","他人","Word","他人","Match","f","true","Formal",""
"","","","","","psychophysics","407","1534029","0.0-9.0-0.2-0.292","586","","f","","","","","","","","","","","","","key","f","16.663368932039305","960","536","3_Stimuli/S_ambi40.png","自我","Image","朋友","Mismatch","j","false","Formal",""
"","","","","","psychophysics","408","1535629","0.0-9.0-0.2-0.293","449","","f","","","","","","","","","","","","","key","f","16.664105263158778","960","536","3_Stimuli/C_ambi40.png","自我","Image","自我","Match","f","true","Formal",""
"","","","","","psychophysics","409","1537300","0.0-9.0-0.2-0.294","519","","f","","","","","","","","","","","","","key","f","16.663959595960367","960","536","3_Stimuli/T_ambi40.png","他人","Word","他人","Match","f","true","Formal",""
"","","","","","psychophysics","410","1538908","0.0-9.0-0.2-0.295","456","","f","","","","","","","","","","","","","key","f","16.663083333332906","960","536","3_Stimuli/T_ambi40.png","朋友","Word","他人","Mismatch","j","false","Formal",""
"","","","","","psychophysics","411","1540486","0.0-9.0-0.2-0.296","427","","f","","","","","","","","","","","","","key","f","16.66453763440762","960","536","3_Stimuli/C_ambi40.png","自我","Word","自我","Match","f","true","Formal",""
"","","","","","psychophysics","412","1542341","0.0-9.0-0.2-0.297","703","","j","","","","","","","","","","","","","key","j","16.663527272726324","960","536","3_Stimuli/T_ambi40.png","朋友","Image","他人","Mismatch","j","true","Formal",""
"","","","","","psychophysics","413","1544096","0.0-9.0-0.2-0.298","603","","f","","","","","","","","","","","","","key","f","16.663855769230466","960","536","3_Stimuli/S_ambi40.png","朋友","Word","朋友","Match","f","true","Formal",""
"","","","","","psychophysics","414","1545748","0.0-9.0-0.2-0.299","501","","f","","","","","","","","","","","","","key","f","16.6642551020415","960","536","3_Stimuli/C_ambi40.png","自我","Image","自我","Match","f","true","Formal",""
"","","","","","psychophysics","415","1547455","0.0-9.0-0.2-0.300","555","","f","","","","","","","","","","","","","key","f","16.663627450979845","960","536","3_Stimuli/S_ambi40.png","他人","Image","朋友","Mismatch","j","false","Formal",""
"","","","","","psychophysics","416","1549114","0.0-9.0-0.2-0.301","508","","f","","","","","","","","","","","","","key","f","16.663704081630925","960","536","3_Stimuli/C_ambi40.png","朋友","Image","自我","Mismatch","j","false","Formal",""
"","","","","","psychophysics","417","1551176","0.0-9.0-0.2-0.302","909","","f","","","","","","","","","","","","","key","f","16.664155737704935","960","536","3_Stimuli/C_ambi40.png","朋友","Word","自我","Mismatch","j","false","Formal",""
"","","","","","psychophysics","418","1552869","0.0-9.0-0.2-0.303","541","","f","","","","","","","","","","","","","key","f","16.66370297029688","960","536","3_Stimuli/S_ambi40.png","朋友","Image","朋友","Match","f","true","Formal",""
"","","","","","psychophysics","419","1554628","0.0-9.0-0.2-0.304","609","","j","","","","","","","","","","","","","key","j","16.66361538461374","960","536","3_Stimuli/T_ambi40.png","自我","Word","他人","Mismatch","j","true","Formal",""
"","","","","","psychophysics","420","1556307","0.0-9.0-0.2-0.305","528","","f","","","","","","","","","","","","","key","f","16.663393939393714","960","536","3_Stimuli/T_ambi40.png","他人","Image","他人","Match","f","true","Formal",""
"","","","","","psychophysics","421","1558127","0.0-9.0-0.2-0.306","669","","j","","","","","","","","","","","","","key","j","16.663481481481103","960","536","3_Stimuli/S_ambi40.png","自我","Word","朋友","Mismatch","j","true","Formal",""
