"success","timeout","failed_images","failed_audio","failed_video","trial_type","trial_index","time_elapsed","internal_node_id","rt","stimulus","response","value","item_width_mm","item_height_mm","item_width_px","px2mm","view_dist_mm","item_width_deg","px2deg","scale_factor","win_width_deg","win_height_deg","view_history","response_type","key_press","avg_frame_time","center_x","center_y","correct_response","correct","Image","word","target","test","image_start","word_start","Valence","Matchness","exp_condition","screen_id"
"true","false","[]","[]","[]","preload","0","10","0.0-0.0","","","","","","","","","","","","","","","","","","","","","","","","","","","","","","","",""
"","","","","","html-keyboard-response","1","232","0.0-1.0","221","
     <p>您好，欢迎参加本次实验。</p>
     <p>为充分保障您的权利，请确保您已经知晓并同意《参与实验同意书》以及《数据公开知情同意书》。</p>
     <p>如果您未见过上述内容，请咨询实验员。</p>
     <p>如果您选择继续实验，则表示您已经清楚两份知情同意书的内容并同意。</p>
     <p> <div style = ""color: green""><按任意键至下页></div> </p>
     ","f","","","","","","","","","","","","","","","","","","","","","","","","","","","","",""
"","","","","","html-keyboard-response","2","461","0.0-2.0","228","
   <p>本实验首先需要您填写一些基本个人信息。</p>
   <p> <div style = ""color: green""><按任意键至下页></div></p>
   ","f","","","","","","","","","","","","","","","","","","","","","","","","","","","","",""
"","","","","","call-function","3","462","0.0-3.0-0.0","","","","","","","","","","","","","","","","","","","","","","","","","","","","","","","",""
"","","","","","survey-html-form","4","2814","0.0-3.0-1.0","2348","","{""Q0"":""1""}","","","","","","","","","","","","","","","","","","","","","","","","","","","","",""
"","","","","","html-button-response","5","3481","0.0-3.0-2.0","665","<p style = 'color : white'>您的性别</p>","0","","","","","","","","","","","","","","","","","","","","","","","","","","","","",""
"","","","","","survey-html-form","6","5003","0.0-3.0-3.0","1520","","{""Q0"":""1900""}","","","","","","","","","","","","","","","","","","","","","","","","","","","","",""
"","","","","","survey-html-form","7","5623","0.0-3.0-4.0","619","","{""Q0"":""5""}","","","","","","","","","","","","","","","","","","","","","","","","","","","","",""
"","","","","","virtual-chinrest","8","21872","0.0-4.0","16248","","","","85.6","53.98","459.7624516136715","5.365994640751343","532.23","9.195249032273429","50","0.7938882323228554","28.8","15.66","","","","","","","","","","","","","","","","","",""
"true","","","","","fullscreen","9","23431","0.0-5.0","","","","","","","","","","","","","","","","","","","","","","","","","","","","","","","",""
"","","","","","instructions","10","26889","0.0-6.0","3457","","","","","","","","","","","","","","[{""page_index"":0,""viewing_time"":1072},{""page_index"":1,""viewing_time"":927},{""page_index"":2,""viewing_time"":929},{""page_index"":3,""viewing_time"":529}]","","","","","","","","","","","","","","","","",""
"","","","","","psychophysics","11","28806","0.0-7.0-0.0-0.0","764","","j","","","","","","","","","","","","","key","j","16.665999999999993","720","446","f","false","3_Stimuli/S_ambi40.png","自我","Image","Word","1000","1150","他人","Mismatch","Practice",""
"","","","","","html-keyboard-response","12","29119","0.0-7.0-0.0-1.0","null","<span style='color:red; font-size: 70px;'>错误! </span>","null","","","","","","","","","","","","","","","","","","","","","","","","","","","","","feedback"
"","","","","","psychophysics","13","31255","0.0-7.0-0.0-0.1","980","","j","","","","","","","","","","","","","key","j","16.66599999999999","720","446","j","true","3_Stimuli/S_ambi40.png","他人","Word","Image","1150","1000","他人","Match","Practice",""
"","","","","","html-keyboard-response","14","31564","0.0-7.0-0.0-1.1","null","<span style='color:GreenYellow; font-size: 70px;'>正确! </span>","null","","","","","","","","","","","","","","","","","","","","","","","","","","","","","feedback"
"","","","","","psychophysics","15","33174","0.0-7.0-0.0-0.2","456","","j","","","","","","","","","","","","","key","j","16.666000000000004","720","446","j","true","3_Stimuli/C_ambi40.png","自我","Word","Image","1150","1000","自我","Match","Practice",""
"","","","","","html-keyboard-response","16","33483","0.0-7.0-0.0-1.2","null","<span style='color:GreenYellow; font-size: 70px;'>正确! </span>","null","","","","","","","","","","","","","","","","","","","","","","","","","","","","","feedback"
"","","","","","psychophysics","17","35087","0.0-7.0-0.0-0.3","450","","j","","","","","","","","","","","","","key","j","16.666000000000043","720","446","f","false","3_Stimuli/T_ambi40.png","自我","Word","Image","1150","1000","朋友","Mismatch","Practice",""
"","","","","","html-keyboard-response","18","35393","0.0-7.0-0.0-1.3","null","<span style='color:red; font-size: 70px;'>错误! </span>","null","","","","","","","","","","","","","","","","","","","","","","","","","","","","","feedback"
"","","","","","psychophysics","19","36927","0.0-7.0-0.0-0.4","382","","j","","","","","","","","","","","","","key","j","16.854099999999985","720","446","f","false","3_Stimuli/C_ambi40.png","朋友","Image","Word","1000","1150","自我","Mismatch","Practice",""
"","","","","","html-keyboard-response","20","37237","0.0-7.0-0.0-1.4","null","<span style='color:red; font-size: 70px;'>错误! </span>","null","","","","","","","","","","","","","","","","","","","","","","","","","","","","","feedback"
"","","","","","psychophysics","21","38874","0.0-7.0-0.0-0.5","480","","j","","","","","","","","","","","","","key","j","16.66599999999999","720","446","j","true","3_Stimuli/T_ambi40.png","朋友","Image","Word","1000","1150","朋友","Match","Practice",""
"","","","","","html-keyboard-response","22","39177","0.0-7.0-0.0-1.5","null","<span style='color:GreenYellow; font-size: 70px;'>正确! </span>","null","","","","","","","","","","","","","","","","","","","","","","","","","","","","","feedback"
"","","","","","psychophysics","23","41215","0.0-7.0-0.0-0.6","886","","f","","","","","","","","","","","","","key","f","16.666000000000004","720","446","f","true","3_Stimuli/T_ambi40.png","他人","Word","Image","1150","1000","朋友","Mismatch","Practice",""
"","","","","","html-keyboard-response","24","41522","0.0-7.0-0.0-1.6","null","<span style='color:GreenYellow; font-size: 70px;'>正确! </span>","null","","","","","","","","","","","","","","","","","","","","","","","","","","","","","feedback"
"","","","","","psychophysics","25","43573","0.0-7.0-0.0-0.7","892","","j","","","","","","","","","","","","","key","j","16.803735537190086","720","446","j","true","3_Stimuli/T_ambi40.png","朋友","Word","Image","1150","1000","朋友","Match","Practice",""
"","","","","","html-keyboard-response","26","43885","0.0-7.0-0.0-1.7","null","<span style='color:GreenYellow; font-size: 70px;'>正确! </span>","null","","","","","","","","","","","","","","","","","","","","","","","","","","","","","feedback"
"","","","","","psychophysics","27","45721","0.0-7.0-0.0-0.8","678","","f","","","","","","","","","","","","","key","f","16.668403669724768","720","446","j","false","3_Stimuli/S_ambi40.png","他人","Image","Word","1000","1150","他人","Match","Practice",""
"","","","","","html-keyboard-response","28","46025","0.0-7.0-0.0-1.8","null","<span style='color:red; font-size: 70px;'>错误! </span>","null","","","","","","","","","","","","","","","","","","","","","","","","","","","","","feedback"
"","","","","","psychophysics","29","48059","0.0-7.0-0.0-0.9","881","","f","","","","","","","","","","","","","key","f","16.804883333333297","720","446","f","true","3_Stimuli/C_ambi40.png","朋友","Word","Image","1150","1000","自我","Mismatch","Practice",""
"","","","","","html-keyboard-response","30","48364","0.0-7.0-0.0-1.9","null","<span style='color:GreenYellow; font-size: 70px;'>正确! </span>","null","","","","","","","","","","","","","","","","","","","","","","","","","","","","","feedback"
"","","","","","psychophysics","31","50219","0.0-7.0-0.0-0.10","703","","f","","","","","","","","","","","","","key","f","16.666000000000018","720","446","f","true","3_Stimuli/T_ambi40.png","他人","Image","Word","1000","1150","朋友","Mismatch","Practice",""
"","","","","","html-keyboard-response","32","50522","0.0-7.0-0.0-1.10","null","<span style='color:GreenYellow; font-size: 70px;'>正确! </span>","null","","","","","","","","","","","","","","","","","","","","","","","","","","","","","feedback"
"","","","","","psychophysics","33","52465","0.0-7.0-0.0-0.11","787","","j","","","","","","","","","","","","","key","j","16.66600000000001","720","446","j","true","3_Stimuli/T_ambi40.png","朋友","Image","Word","1000","1150","朋友","Match","Practice",""
"","","","","","html-keyboard-response","34","52769","0.0-7.0-0.0-1.11","null","<span style='color:GreenYellow; font-size: 70px;'>正确! </span>","null","","","","","","","","","","","","","","","","","","","","","","","","","","","","","feedback"
"","","","","","psychophysics","35","54758","0.0-7.0-0.0-0.12","836","","j","","","","","","","","","","","","","key","j","16.66600000000003","720","446","f","false","3_Stimuli/T_ambi40.png","自我","Image","Word","1000","1150","朋友","Mismatch","Practice",""
"","","","","","html-keyboard-response","36","55067","0.0-7.0-0.0-1.12","null","<span style='color:red; font-size: 70px;'>错误! </span>","null","","","","","","","","","","","","","","","","","","","","","","","","","","","","","feedback"
"","","","","","psychophysics","37","56807","0.0-7.0-0.0-0.13","582","","f","","","","","","","","","","","","","key","f","16.668553398058226","720","446","f","true","3_Stimuli/C_ambi40.png","他人","Image","Word","1000","1150","自我","Mismatch","Practice",""
"","","","","","html-keyboard-response","38","57117","0.0-7.0-0.0-1.13","null","<span style='color:GreenYellow; font-size: 70px;'>正确! </span>","null","","","","","","","","","","","","","","","","","","","","","","","","","","","","","feedback"
"","","","","","psychophysics","39","58933","0.0-7.0-0.0-0.14","660","","j","","","","","","","","","","","","","key","j","16.666","720","446","j","true","3_Stimuli/T_ambi40.png","朋友","Word","Image","1150","1000","朋友","Match","Practice",""
"","","","","","html-keyboard-response","40","59243","0.0-7.0-0.0-1.14","null","<span style='color:GreenYellow; font-size: 70px;'>正确! </span>","null","","","","","","","","","","","","","","","","","","","","","","","","","","","","","feedback"
"","","","","","psychophysics","41","61070","0.0-7.0-0.0-0.15","668","","j","","","","","","","","","","","","","key","j","16.665999999999976","720","446","j","true","3_Stimuli/C_ambi40.png","自我","Word","Image","1150","1000","自我","Match","Practice",""
"","","","","","html-keyboard-response","42","61376","0.0-7.0-0.0-1.15","null","<span style='color:GreenYellow; font-size: 70px;'>正确! </span>","null","","","","","","","","","","","","","","","","","","","","","","","","","","","","","feedback"
"","","","","","psychophysics","43","63331","0.0-7.0-0.0-0.16","803","","f","","","","","","","","","","","","","key","f","16.66600000000001","720","446","j","false","3_Stimuli/S_ambi40.png","他人","Word","Image","1150","1000","他人","Match","Practice",""
"","","","","","html-keyboard-response","44","63642","0.0-7.0-0.0-1.16","null","<span style='color:red; font-size: 70px;'>错误! </span>","null","","","","","","","","","","","","","","","","","","","","","","","","","","","","","feedback"
"","","","","","psychophysics","45","65085","0.0-7.0-0.0-0.17","291","","j","","","","","","","","","","","","","key","j","16.665999999999976","720","446","j","true","3_Stimuli/C_ambi40.png","自我","Image","Word","1000","1150","自我","Match","Practice",""
"","","","","","html-keyboard-response","46","65392","0.0-7.0-0.0-1.17","null","<span style='color:GreenYellow; font-size: 70px;'>正确! </span>","null","","","","","","","","","","","","","","","","","","","","","","","","","","","","","feedback"
"","","","","","psychophysics","47","67098","0.0-7.0-0.0-0.18","552","","j","","","","","","","","","","","","","key","j","16.668594059405997","720","446","f","false","3_Stimuli/S_ambi40.png","朋友","Image","Word","1000","1150","他人","Mismatch","Practice",""
"","","","","","html-keyboard-response","48","67401","0.0-7.0-0.0-1.18","null","<span style='color:red; font-size: 70px;'>错误! </span>","null","","","","","","","","","","","","","","","","","","","","","","","","","","","","","feedback"
"","","","","","psychophysics","49","69083","0.0-7.0-0.0-0.19","523","","j","","","","","","","","","","","","","key","j","16.666000000000057","720","446","j","true","3_Stimuli/C_ambi40.png","自我","Image","Word","1000","1150","自我","Match","Practice",""
"","","","","","html-keyboard-response","50","69391","0.0-7.0-0.0-1.19","null","<span style='color:GreenYellow; font-size: 70px;'>正确! </span>","null","","","","","","","","","","","","","","","","","","","","","","","","","","","","","feedback"
"","","","","","psychophysics","51","71139","0.0-7.0-0.0-0.20","595","","j","","","","","","","","","","","","","key","j","16.665999999999958","720","446","j","true","3_Stimuli/S_ambi40.png","他人","Image","Word","1000","1150","他人","Match","Practice",""
"","","","","","html-keyboard-response","52","71451","0.0-7.0-0.0-1.20","null","<span style='color:GreenYellow; font-size: 70px;'>正确! </span>","null","","","","","","","","","","","","","","","","","","","","","","","","","","","","","feedback"
"","","","","","psychophysics","53","73254","0.0-7.0-0.0-0.21","645","","j","","","","","","","","","","","","","key","j","16.66600000000002","720","446","f","false","3_Stimuli/S_ambi40.png","朋友","Word","Image","1150","1000","他人","Mismatch","Practice",""
"","","","","","html-keyboard-response","54","73561","0.0-7.0-0.0-1.21","null","<span style='color:red; font-size: 70px;'>错误! </span>","null","","","","","","","","","","","","","","","","","","","","","","","","","","","","","feedback"
"","","","","","psychophysics","55","75637","0.0-7.0-0.0-0.22","921","","f","","","","","","","","","","","","","key","f","16.666000000000043","720","446","f","true","3_Stimuli/S_ambi40.png","自我","Word","Image","1150","1000","他人","Mismatch","Practice",""
"","","","","","html-keyboard-response","56","75946","0.0-7.0-0.0-1.22","null","<span style='color:GreenYellow; font-size: 70px;'>正确! </span>","null","","","","","","","","","","","","","","","","","","","","","","","","","","","","","feedback"
"","","","","","psychophysics","57","78179","0.0-7.0-0.0-0.23","1082","","f","","","","","","","","","","","","","key","f","16.666000000000064","720","446","f","true","3_Stimuli/C_ambi40.png","他人","Word","Image","1150","1000","自我","Mismatch","Practice",""
"","","","","","html-keyboard-response","58","78488","0.0-7.0-0.0-1.23","null","<span style='color:GreenYellow; font-size: 70px;'>正确! </span>","null","","","","","","","","","","","","","","","","","","","","","","","","","","","","","feedback"
"","","","","","html-keyboard-response","59","80319","0.0-7.0-1.0-0.0","1829","<style>.context{color:white; font-size: 35px; line-height:40px}</style>                        <div><p class='context'>您正确回答了67% 的试次。</p><p class='context'>您的平均反应时为712毫秒。</p><p> <div style = 'color: green'><按空格键至下页></div></p>"," ","","","","","","","","","","","","","","","","","","","","","","","","","","","","",""
"","","","","","instructions","60","89908","0.0-7.0-1.0-1.0","9586","","","","","","","","","","","","","","[{""page_index"":0,""viewing_time"":7345},{""page_index"":1,""viewing_time"":1322},{""page_index"":2,""viewing_time"":919}]","","","","","","","","","","","","","","","","",""
"","","","","","psychophysics","61","91618","0.0-7.1-0.1-0.24","554","","j","","","","","","","","","","","","","key","j","16.666000000000032","720","446","j","true","3_Stimuli/T_ambi40.png","朋友","Word","Image","1150","1000","朋友","Match","Practice",""
"","","","","","html-keyboard-response","62","91928","0.0-7.1-0.1-1.24","null","<span style='color:GreenYellow; font-size: 70px;'>正确! </span>","null","","","","","","","","","","","","","","","","","","","","","","","","","","","","","feedback"
"","","","","","psychophysics","63","94593","0.0-7.1-0.1-0.25","null","","null","","","","","","","","","","","","","key","null","16.665999999999926","720","446","f","false","3_Stimuli/S_ambi40.png","自我","Image","Word","1000","1150","他人","Mismatch","Practice",""
"","","","","","html-keyboard-response","64","94906","0.0-7.1-0.1-1.25","null","<span class='add_' style='color:yellow; font-size: 70px;'> 太慢! </span>","null","","","","","","","","","","","","","","","","","","","","","","","","","","","","","feedback"
"","","","","","psychophysics","65","97575","0.0-7.1-0.1-0.26","null","","null","","","","","","","","","","","","","key","null","16.667647798742156","720","446","f","false","3_Stimuli/T_ambi40.png","他人","Word","Image","1150","1000","朋友","Mismatch","Practice",""
"","","","","","html-keyboard-response","66","97882","0.0-7.1-0.1-1.26","null","<span class='add_' style='color:yellow; font-size: 70px;'> 太慢! </span>","null","","","","","","","","","","","","","","","","","","","","","","","","","","","","","feedback"
"","","","","","psychophysics","67","101432","0.0-7.1-0.1-0.27","null","","null","","","","","","","","","","","","","key","null","17.116432432432457","720","446","j","false","3_Stimuli/S_ambi40.png","他人","Word","Image","1150","1000","他人","Match","Practice",""
"","","","","","html-keyboard-response","68","102430","0.0-7.1-0.1-1.27","null","<span class='add_' style='color:yellow; font-size: 70px;'> 太慢! </span>","null","","","","","","","","","","","","","","","","","","","","","","","","","","","","","feedback"
"","","","","","psychophysics","69","105433","0.0-7.1-0.1-0.28","null","","null","","","","","","","","","","","","","key","null","NaN","720","446","j","false","3_Stimuli/T_ambi40.png","朋友","Image","Word","1000","1150","朋友","Match","Practice",""
"","","","","","html-keyboard-response","70","106431","0.0-7.1-0.1-1.28","null","<span class='add_' style='color:yellow; font-size: 70px;'> 太慢! </span>","null","","","","","","","","","","","","","","","","","","","","","","","","","","","","","feedback"
"","","","","","psychophysics","71","109433","0.0-7.1-0.1-0.29","null","","null","","","","","","","","","","","","","key","null","NaN","720","446","j","false","3_Stimuli/S_ambi40.png","他人","Image","Word","1000","1150","他人","Match","Practice",""
"","","","","","html-keyboard-response","72","110433","0.0-7.1-0.1-1.29","null","<span class='add_' style='color:yellow; font-size: 70px;'> 太慢! </span>","null","","","","","","","","","","","","","","","","","","","","","","","","","","","","","feedback"
"","","","","","psychophysics","73","113430","0.0-7.1-0.1-0.30","null","","null","","","","","","","","","","","","","key","null","NaN","720","446","j","false","3_Stimuli/C_ambi40.png","自我","Image","Word","1000","1150","自我","Match","Practice",""
"","","","","","html-keyboard-response","74","114434","0.0-7.1-0.1-1.30","null","<span class='add_' style='color:yellow; font-size: 70px;'> 太慢! </span>","null","","","","","","","","","","","","","","","","","","","","","","","","","","","","","feedback"
"","","","","","psychophysics","75","117432","0.0-7.1-0.1-0.31","null","","null","","","","","","","","","","","","","key","null","NaN","720","446","f","false","3_Stimuli/S_ambi40.png","自我","Word","Image","1150","1000","他人","Mismatch","Practice",""
"","","","","","html-keyboard-response","76","118433","0.0-7.1-0.1-1.31","null","<span class='add_' style='color:yellow; font-size: 70px;'> 太慢! </span>","null","","","","","","","","","","","","","","","","","","","","","","","","","","","","","feedback"
"","","","","","psychophysics","77","121430","0.0-7.1-0.1-0.32","null","","null","","","","","","","","","","","","","key","null","NaN","720","446","f","false","3_Stimuli/T_ambi40.png","自我","Image","Word","1000","1150","朋友","Mismatch","Practice",""
"","","","","","html-keyboard-response","78","122429","0.0-7.1-0.1-1.32","null","<span class='add_' style='color:yellow; font-size: 70px;'> 太慢! </span>","null","","","","","","","","","","","","","","","","","","","","","","","","","","","","","feedback"
"","","","","","psychophysics","79","125431","0.0-7.1-0.1-0.33","null","","null","","","","","","","","","","","","","key","null","NaN","720","446","f","false","3_Stimuli/C_ambi40.png","朋友","Word","Image","1150","1000","自我","Mismatch","Practice",""
"","","","","","html-keyboard-response","80","126432","0.0-7.1-0.1-1.33","null","<span class='add_' style='color:yellow; font-size: 70px;'> 太慢! </span>","null","","","","","","","","","","","","","","","","","","","","","","","","","","","","","feedback"
"","","","","","psychophysics","81","129428","0.0-7.1-0.1-0.34","null","","null","","","","","","","","","","","","","key","null","NaN","720","446","f","false","3_Stimuli/T_ambi40.png","他人","Image","Word","1000","1150","朋友","Mismatch","Practice",""
"","","","","","html-keyboard-response","82","130431","0.0-7.1-0.1-1.34","null","<span class='add_' style='color:yellow; font-size: 70px;'> 太慢! </span>","null","","","","","","","","","","","","","","","","","","","","","","","","","","","","","feedback"
"","","","","","psychophysics","83","133430","0.0-7.1-0.1-0.35","null","","null","","","","","","","","","","","","","key","null","NaN","720","446","f","false","3_Stimuli/C_ambi40.png","他人","Word","Image","1150","1000","自我","Mismatch","Practice",""
"","","","","","html-keyboard-response","84","134432","0.0-7.1-0.1-1.35","null","<span class='add_' style='color:yellow; font-size: 70px;'> 太慢! </span>","null","","","","","","","","","","","","","","","","","","","","","","","","","","","","","feedback"
"","","","","","psychophysics","85","137429","0.0-7.1-0.1-0.36","null","","null","","","","","","","","","","","","","key","null","NaN","720","446","j","false","3_Stimuli/S_ambi40.png","他人","Image","Word","1000","1150","他人","Match","Practice",""
"","","","","","html-keyboard-response","86","138431","0.0-7.1-0.1-1.36","null","<span class='add_' style='color:yellow; font-size: 70px;'> 太慢! </span>","null","","","","","","","","","","","","","","","","","","","","","","","","","","","","","feedback"
"","","","","","psychophysics","87","141432","0.0-7.1-0.1-0.37","null","","null","","","","","","","","","","","","","key","null","NaN","720","446","f","false","3_Stimuli/S_ambi40.png","朋友","Image","Word","1000","1150","他人","Mismatch","Practice",""
"","","","","","html-keyboard-response","88","142431","0.0-7.1-0.1-1.37","null","<span class='add_' style='color:yellow; font-size: 70px;'> 太慢! </span>","null","","","","","","","","","","","","","","","","","","","","","","","","","","","","","feedback"
"","","","","","psychophysics","89","145429","0.0-7.1-0.1-0.38","null","","null","","","","","","","","","","","","","key","null","NaN","720","446","j","false","3_Stimuli/C_ambi40.png","自我","Word","Image","1150","1000","自我","Match","Practice",""
"","","","","","html-keyboard-response","90","146430","0.0-7.1-0.1-1.38","null","<span class='add_' style='color:yellow; font-size: 70px;'> 太慢! </span>","null","","","","","","","","","","","","","","","","","","","","","","","","","","","","","feedback"
"","","","","","psychophysics","91","149430","0.0-7.1-0.1-0.39","null","","null","","","","","","","","","","","","","key","null","NaN","720","446","f","false","3_Stimuli/S_ambi40.png","朋友","Word","Image","1150","1000","他人","Mismatch","Practice",""
"","","","","","html-keyboard-response","92","150430","0.0-7.1-0.1-1.39","null","<span class='add_' style='color:yellow; font-size: 70px;'> 太慢! </span>","null","","","","","","","","","","","","","","","","","","","","","","","","","","","","","feedback"
"","","","","","psychophysics","93","153430","0.0-7.1-0.1-0.40","null","","null","","","","","","","","","","","","","key","null","NaN","720","446","j","false","3_Stimuli/C_ambi40.png","自我","Word","Image","1150","1000","自我","Match","Practice",""
"","","","","","html-keyboard-response","94","154431","0.0-7.1-0.1-1.40","null","<span class='add_' style='color:yellow; font-size: 70px;'> 太慢! </span>","null","","","","","","","","","","","","","","","","","","","","","","","","","","","","","feedback"
"","","","","","psychophysics","95","157430","0.0-7.1-0.1-0.41","null","","null","","","","","","","","","","","","","key","null","NaN","720","446","f","false","3_Stimuli/C_ambi40.png","朋友","Image","Word","1000","1150","自我","Mismatch","Practice",""
"","","","","","html-keyboard-response","96","158430","0.0-7.1-0.1-1.41","null","<span class='add_' style='color:yellow; font-size: 70px;'> 太慢! </span>","null","","","","","","","","","","","","","","","","","","","","","","","","","","","","","feedback"
"","","","","","psychophysics","97","161103","0.0-7.1-0.1-0.42","null","","null","","","","","","","","","","","","","key","null","16.68111818181827","720","446","j","false","3_Stimuli/T_ambi40.png","朋友","Word","Image","1150","1000","朋友","Match","Practice",""
"","","","","","html-keyboard-response","98","161415","0.0-7.1-0.1-1.42","null","<span class='add_' style='color:yellow; font-size: 70px;'> 太慢! </span>","null","","","","","","","","","","","","","","","","","","","","","","","","","","","","","feedback"
"","","","","","psychophysics","99","164075","0.0-7.1-0.1-0.43","null","","null","","","","","","","","","","","","","key","null","16.666","720","446","f","false","3_Stimuli/C_ambi40.png","他人","Image","Word","1000","1150","自我","Mismatch","Practice",""
"","","","","","html-keyboard-response","100","164382","0.0-7.1-0.1-1.43","null","<span class='add_' style='color:yellow; font-size: 70px;'> 太慢! </span>","null","","","","","","","","","","","","","","","","","","","","","","","","","","","","","feedback"
"","","","","","psychophysics","101","167429","0.0-7.1-0.1-0.44","null","","null","","","","","","","","","","","","","key","null","16.66599999999744","720","446","j","false","3_Stimuli/C_ambi40.png","自我","Image","Word","1000","1150","自我","Match","Practice",""
"","","","","","html-keyboard-response","102","168430","0.0-7.1-0.1-1.44","null","<span class='add_' style='color:yellow; font-size: 70px;'> 太慢! </span>","null","","","","","","","","","","","","","","","","","","","","","","","","","","","","","feedback"
"","","","","","psychophysics","103","171429","0.0-7.1-0.1-0.45","null","","null","","","","","","","","","","","","","key","null","NaN","720","446","f","false","3_Stimuli/T_ambi40.png","自我","Word","Image","1150","1000","朋友","Mismatch","Practice",""
"","","","","","html-keyboard-response","104","172426","0.0-7.1-0.1-1.45","null","<span class='add_' style='color:yellow; font-size: 70px;'> 太慢! </span>","null","","","","","","","","","","","","","","","","","","","","","","","","","","","","","feedback"
"","","","","","psychophysics","105","175430","0.0-7.1-0.1-0.46","null","","null","","","","","","","","","","","","","key","null","NaN","720","446","j","false","3_Stimuli/S_ambi40.png","他人","Word","Image","1150","1000","他人","Match","Practice",""
"","","","","","html-keyboard-response","106","176430","0.0-7.1-0.1-1.46","null","<span class='add_' style='color:yellow; font-size: 70px;'> 太慢! </span>","null","","","","","","","","","","","","","","","","","","","","","","","","","","","","","feedback"
"","","","","","psychophysics","107","179427","0.0-7.1-0.1-0.47","null","","null","","","","","","","","","","","","","key","null","NaN","720","446","j","false","3_Stimuli/T_ambi40.png","朋友","Image","Word","1000","1150","朋友","Match","Practice",""
"","","","","","html-keyboard-response","108","180430","0.0-7.1-0.1-1.47","null","<span class='add_' style='color:yellow; font-size: 70px;'> 太慢! </span>","null","","","","","","","","","","","","","","","","","","","","","","","","","","","","","feedback"
"","","","","","html-keyboard-response","109","332483","0.0-7.1-1.1-0.1","152060","<style>.context{color:white; font-size: 35px; line-height:40px}</style>                        <div><p class='context'>您正确回答了4% 的试次。</p><p class='context'>您的平均反应时为554毫秒。</p><p> <div style = 'color: green'><按空格键至下页></div></p>"," ","","","","","","","","","","","","","","","","","","","","","","","","","","","","",""
"","","","","","instructions","110","454494","0.0-7.1-1.1-1.1","121989","","","","","","","","","","","","","","[{""page_index"":0,""viewing_time"":118157},{""page_index"":1,""viewing_time"":2309},{""page_index"":2,""viewing_time"":1522}]","","","","","","","","","","","","","","","","",""
"","","","","","psychophysics","111","456352","0.0-7.2-0.2-0.48","704","","j","","","","","","","","","","","","","key","j","16.666000000000086","720","446","j","true","3_Stimuli/C_ambi40.png","自我","Word","Image","1150","1000","自我","Match","Practice",""
"","","","","","html-keyboard-response","112","456661","0.0-7.2-0.2-1.48","null","<span style='color:GreenYellow; font-size: 70px;'>正确! </span>","null","","","","","","","","","","","","","","","","","","","","","","","","","","","","","feedback"
"","","","","","psychophysics","113","458437","0.0-7.2-0.2-0.49","616","","j","","","","","","","","","","","","","key","j","16.66850476190448","720","446","j","true","3_Stimuli/T_ambi40.png","朋友","Word","Image","1150","1000","朋友","Match","Practice",""
"","","","","","html-keyboard-response","114","458740","0.0-7.2-0.2-1.49","null","<span style='color:GreenYellow; font-size: 70px;'>正确! </span>","null","","","","","","","","","","","","","","","","","","","","","","","","","","","","","feedback"
"","","","","","psychophysics","115","460566","0.0-7.2-0.2-0.50","670","","j","","","","","","","","","","","","","key","j","16.666000000000135","720","446","j","true","3_Stimuli/C_ambi40.png","自我","Word","Image","1150","1000","自我","Match","Practice",""
"","","","","","html-keyboard-response","116","460876","0.0-7.2-0.2-1.50","null","<span style='color:GreenYellow; font-size: 70px;'>正确! </span>","null","","","","","","","","","","","","","","","","","","","","","","","","","","","","","feedback"
"","","","","","psychophysics","117","462783","0.0-7.2-0.2-0.51","755","","f","","","","","","","","","","","","","key","f","16.665999999999755","720","446","f","true","3_Stimuli/C_ambi40.png","他人","Word","Image","1150","1000","自我","Mismatch","Practice",""
"","","","","","html-keyboard-response","118","463094","0.0-7.2-0.2-1.51","null","<span style='color:GreenYellow; font-size: 70px;'>正确! </span>","null","","","","","","","","","","","","","","","","","","","","","","","","","","","","","feedback"
"","","","","","psychophysics","119","465056","0.0-7.2-0.2-0.52","810","","f","","","","","","","","","","","","","key","f","16.665999999999947","720","446","f","true","3_Stimuli/S_ambi40.png","自我","Word","Image","1150","1000","他人","Mismatch","Practice",""
"","","","","","html-keyboard-response","120","465363","0.0-7.2-0.2-1.52","null","<span style='color:GreenYellow; font-size: 70px;'>正确! </span>","null","","","","","","","","","","","","","","","","","","","","","","","","","","","","","feedback"
"","","","","","psychophysics","121","467087","0.0-7.2-0.2-0.53","563","","j","","","","","","","","","","","","","key","j","16.66600000000029","720","446","j","true","3_Stimuli/C_ambi40.png","自我","Image","Word","1000","1150","自我","Match","Practice",""
"","","","","","html-keyboard-response","122","467395","0.0-7.2-0.2-1.53","null","<span style='color:GreenYellow; font-size: 70px;'>正确! </span>","null","","","","","","","","","","","","","","","","","","","","","","","","","","","","","feedback"
"","","","","","psychophysics","123","469382","0.0-7.2-0.2-0.54","834","","j","","","","","","","","","","","","","key","j","16.668220338983346","720","446","j","true","3_Stimuli/S_ambi40.png","他人","Image","Word","1000","1150","他人","Match","Practice",""
"","","","","","html-keyboard-response","124","469691","0.0-7.2-0.2-1.54","null","<span style='color:GreenYellow; font-size: 70px;'>正确! </span>","null","","","","","","","","","","","","","","","","","","","","","","","","","","","","","feedback"
"","","","","","psychophysics","125","471560","0.0-7.2-0.2-0.55","714","","j","","","","","","","","","","","","","key","j","16.665999999999798","720","446","j","true","3_Stimuli/S_ambi40.png","他人","Image","Word","1000","1150","他人","Match","Practice",""
"","","","","","html-keyboard-response","126","471864","0.0-7.2-0.2-1.55","null","<span style='color:GreenYellow; font-size: 70px;'>正确! </span>","null","","","","","","","","","","","","","","","","","","","","","","","","","","","","","feedback"
"","","","","","psychophysics","127","473849","0.0-7.2-0.2-0.56","834","","f","","","","","","","","","","","","","key","f","16.6660000000004","720","446","f","true","3_Stimuli/C_ambi40.png","朋友","Image","Word","1000","1150","自我","Mismatch","Practice",""
"","","","","","html-keyboard-response","128","474155","0.0-7.2-0.2-1.56","null","<span style='color:GreenYellow; font-size: 70px;'>正确! </span>","null","","","","","","","","","","","","","","","","","","","","","","","","","","","","","feedback"
"","","","","","psychophysics","129","476015","0.0-7.2-0.2-0.57","707","","f","","","","","","","","","","","","","key","f","16.665999999999798","720","446","f","true","3_Stimuli/C_ambi40.png","他人","Image","Word","1000","1150","自我","Mismatch","Practice",""
"","","","","","html-keyboard-response","130","476326","0.0-7.2-0.2-1.57","null","<span style='color:GreenYellow; font-size: 70px;'>正确! </span>","null","","","","","","","","","","","","","","","","","","","","","","","","","","","","","feedback"
"","","","","","psychophysics","131","478416","0.0-7.2-0.2-0.58","933","","j","","","","","","","","","","","","","key","j","16.668120967742006","720","446","f","false","3_Stimuli/T_ambi40.png","自我","Image","Word","1000","1150","朋友","Mismatch","Practice",""
"","","","","","html-keyboard-response","132","478726","0.0-7.2-0.2-1.58","null","<span style='color:red; font-size: 70px;'>错误! </span>","null","","","","","","","","","","","","","","","","","","","","","","","","","","","","","feedback"
"","","","","","psychophysics","133","480780","0.0-7.2-0.2-0.59","900","","j","","","","","","","","","","","","","key","j","16.665999999999823","720","446","j","true","3_Stimuli/T_ambi40.png","朋友","Image","Word","1000","1150","朋友","Match","Practice",""
"","","","","","html-keyboard-response","134","481083","0.0-7.2-0.2-1.59","null","<span style='color:GreenYellow; font-size: 70px;'>正确! </span>","null","","","","","","","","","","","","","","","","","","","","","","","","","","","","","feedback"
"","","","","","psychophysics","135","483405","0.0-7.2-0.2-0.60","1162","","f","","","","","","","","","","","","","key","f","16.66599999999997","720","446","j","false","3_Stimuli/S_ambi40.png","他人","Word","Image","1150","1000","他人","Match","Practice",""
"","","","","","html-keyboard-response","136","483719","0.0-7.2-0.2-1.60","null","<span style='color:red; font-size: 70px;'>错误! </span>","null","","","","","","","","","","","","","","","","","","","","","","","","","","","","","feedback"
"","","","","","psychophysics","137","486082","0.0-7.2-0.2-0.61","1208","","f","","","","","","","","","","","","","key","f","16.66599999999971","720","446","f","true","3_Stimuli/T_ambi40.png","他人","Image","Word","1000","1150","朋友","Mismatch","Practice",""
"","","","","","html-keyboard-response","138","486386","0.0-7.2-0.2-1.61","null","<span style='color:GreenYellow; font-size: 70px;'>正确! </span>","null","","","","","","","","","","","","","","","","","","","","","","","","","","","","","feedback"
"","","","","","psychophysics","139","488377","0.0-7.2-0.2-0.62","841","","f","","","","","","","","","","","","","key","f","16.80945762711867","720","446","f","true","3_Stimuli/T_ambi40.png","他人","Word","Image","1150","1000","朋友","Mismatch","Practice",""
"","","","","","html-keyboard-response","140","488682","0.0-7.2-0.2-1.62","null","<span style='color:GreenYellow; font-size: 70px;'>正确! </span>","null","","","","","","","","","","","","","","","","","","","","","","","","","","","","","feedback"
"","","","","","psychophysics","141","490351","0.0-7.2-0.2-0.63","510","","j","","","","","","","","","","","","","key","j","16.666000000000086","720","446","j","true","3_Stimuli/C_ambi40.png","自我","Image","Word","1000","1150","自我","Match","Practice",""
"","","","","","html-keyboard-response","142","490662","0.0-7.2-0.2-1.63","null","<span style='color:GreenYellow; font-size: 70px;'>正确! </span>","null","","","","","","","","","","","","","","","","","","","","","","","","","","","","","feedback"
"","","","","","psychophysics","143","492583","0.0-7.2-0.2-0.64","766","","j","","","","","","","","","","","","","key","j","16.813486725663708","720","446","f","false","3_Stimuli/S_ambi40.png","朋友","Image","Word","1000","1150","他人","Mismatch","Practice",""
"","","","","","html-keyboard-response","144","492890","0.0-7.2-0.2-1.64","null","<span style='color:red; font-size: 70px;'>错误! </span>","null","","","","","","","","","","","","","","","","","","","","","","","","","","","","","feedback"
"","","","","","psychophysics","145","494833","0.0-7.2-0.2-0.65","790","","f","","","","","","","","","","","","","key","f","16.665999999999716","720","446","f","true","3_Stimuli/S_ambi40.png","自我","Image","Word","1000","1150","他人","Mismatch","Practice",""
"","","","","","html-keyboard-response","146","495141","0.0-7.2-0.2-1.65","null","<span style='color:GreenYellow; font-size: 70px;'>正确! </span>","null","","","","","","","","","","","","","","","","","","","","","","","","","","","","","feedback"
"","","","","","psychophysics","147","497325","0.0-7.2-0.2-0.66","1033","","f","","","","","","","","","","","","","key","f","16.666000000000125","720","446","f","true","3_Stimuli/T_ambi40.png","自我","Word","Image","1150","1000","朋友","Mismatch","Practice",""
"","","","","","html-keyboard-response","148","497634","0.0-7.2-0.2-1.66","null","<span style='color:GreenYellow; font-size: 70px;'>正确! </span>","null","","","","","","","","","","","","","","","","","","","","","","","","","","","","","feedback"
"","","","","","psychophysics","149","499785","0.0-7.2-0.2-0.67","994","","j","","","","","","","","","","","","","key","j","16.668062499999905","720","446","j","true","3_Stimuli/S_ambi40.png","他人","Word","Image","1150","1000","他人","Match","Practice",""
"","","","","","html-keyboard-response","150","500091","0.0-7.2-0.2-1.67","null","<span style='color:GreenYellow; font-size: 70px;'>正确! </span>","null","","","","","","","","","","","","","","","","","","","","","","","","","","","","","feedback"
"","","","","","psychophysics","151","502010","0.0-7.2-0.2-0.68","761","","j","","","","","","","","","","","","","key","j","16.813486725663708","720","446","j","true","3_Stimuli/T_ambi40.png","朋友","Word","Image","1150","1000","朋友","Match","Practice",""
"","","","","","html-keyboard-response","152","502313","0.0-7.2-0.2-1.68","null","<span style='color:GreenYellow; font-size: 70px;'>正确! </span>","null","","","","","","","","","","","","","","","","","","","","","","","","","","","","","feedback"
"","","","","","psychophysics","153","504355","0.0-7.2-0.2-0.69","882","","f","","","","","","","","","","","","","key","f","16.665999999999602","720","446","f","true","3_Stimuli/S_ambi40.png","朋友","Word","Image","1150","1000","他人","Mismatch","Practice",""
"","","","","","html-keyboard-response","154","504661","0.0-7.2-0.2-1.69","null","<span style='color:GreenYellow; font-size: 70px;'>正确! </span>","null","","","","","","","","","","","","","","","","","","","","","","","","","","","","","feedback"
"","","","","","psychophysics","155","506318","0.0-7.2-0.2-0.70","501","","j","","","","","","","","","","","","","key","j","16.66600000000041","720","446","j","true","3_Stimuli/T_ambi40.png","朋友","Image","Word","1000","1150","朋友","Match","Practice",""
"","","","","","html-keyboard-response","156","506628","0.0-7.2-0.2-1.70","null","<span style='color:GreenYellow; font-size: 70px;'>正确! </span>","null","","","","","","","","","","","","","","","","","","","","","","","","","","","","","feedback"
"","","","","","psychophysics","157","508751","0.0-7.2-0.2-0.71","972","","f","","","","","","","","","","","","","key","f","16.66808730158733","720","446","f","true","3_Stimuli/C_ambi40.png","朋友","Word","Image","1150","1000","自我","Mismatch","Practice",""
"","","","","","html-keyboard-response","158","509061","0.0-7.2-0.2-1.71","null","<span style='color:GreenYellow; font-size: 70px;'>正确! </span>","null","","","","","","","","","","","","","","","","","","","","","","","","","","","","","feedback"
"","","","","","html-keyboard-response","159","513229","0.0-8.0","4164","<style>.context{color:white; font-size: 35px; line-height:40px}</style>                          <div><p class='context'>您正确回答了88% 的试次。</p><p class='context'>您的平均反应时为790毫秒。</p><p class='context'>恭喜您完成练习。按任意键进入正式实验。</p><p class='footer' style='font-size: 35px; line-height:40px;'>请在进入正式实验实验之前将您的<span style='color: lightgreen;'>食指</span>放在电脑键盘的相应键位上进行按键。</p>","j","","","","","","","","","","","","","","","","","","","","","","","","","","","","",""
"","","","","","psychophysics","160","515048","0.0-9.0-0.0-0.0","657","","j","","","","","","","","","","","","","key","j","16.665999999999887","720","446","j","true","3_Stimuli/T_ambi40.png","朋友","Word","Image","1150","1000","朋友","Match","Formal",""
"","","","","","psychophysics","161","517414","0.0-9.0-0.0-0.1","1213","","j","","","","","","","","","","","","","key","j","16.665999999999933","720","446","j","true","3_Stimuli/T_ambi40.png","朋友","Image","Word","1000","1150","朋友","Match","Formal",""
"","","","","","psychophysics","162","519364","0.0-9.0-0.0-0.2","795","","f","","","","","","","","","","","","","key","f","16.6682586206895","720","446","f","true","3_Stimuli/S_ambi40.png","朋友","Image","Word","1000","1150","他人","Mismatch","Formal",""
"","","","","","psychophysics","163","521201","0.0-9.0-0.0-0.3","680","","j","","","","","","","","","","","","","key","j","16.66599999999984","720","446","j","true","3_Stimuli/T_ambi40.png","朋友","Image","Word","1000","1150","朋友","Match","Formal",""
"","","","","","psychophysics","164","523080","0.0-9.0-0.0-0.4","725","","j","","","","","","","","","","","","","key","j","17.787749999999786","720","446","f","false","3_Stimuli/C_ambi40.png","他人","Image","Word","1000","1150","自我","Mismatch","Formal",""
"","","","","","psychophysics","165","525006","0.0-9.0-0.0-0.5","774","","f","","","","","","","","","","","","","key","f","16.813486725663708","720","446","j","false","3_Stimuli/S_ambi40.png","他人","Image","Word","1000","1150","他人","Match","Formal",""
"","","","","","psychophysics","166","527118","0.0-9.0-0.0-0.6","960","","j","","","","","","","","","","","","","key","j","16.666","720","446","j","true","3_Stimuli/C_ambi40.png","自我","Image","Word","1000","1150","自我","Match","Formal",""
"","","","","","psychophysics","167","529449","0.0-9.0-0.0-0.7","1177","","j","","","","","","","","","","","","","key","j","16.667905797101252","720","446","j","true","3_Stimuli/C_ambi40.png","自我","Image","Word","1000","1150","自我","Match","Formal",""
"","","","","","psychophysics","168","532435","0.0-9.0-0.0-0.8","null","","null","","","","","","","","","","","","","key","null","17.766584905660668","720","446","j","false","3_Stimuli/S_ambi40.png","他人","Word","Image","1150","1000","他人","Match","Formal",""
"","","","","","psychophysics","169","535433","0.0-9.0-0.0-0.9","null","","null","","","","","","","","","","","","","key","null","NaN","720","446","j","false","3_Stimuli/S_ambi40.png","他人","Word","Image","1150","1000","他人","Match","Formal",""
"","","","","","psychophysics","170","538435","0.0-9.0-0.0-0.10","null","","null","","","","","","","","","","","","","key","null","NaN","720","446","f","false","3_Stimuli/C_ambi40.png","他人","Word","Image","1150","1000","自我","Mismatch","Formal",""
"","","","","","psychophysics","171","541433","0.0-9.0-0.0-0.11","null","","null","","","","","","","","","","","","","key","null","NaN","720","446","f","false","3_Stimuli/T_ambi40.png","他人","Word","Image","1150","1000","朋友","Mismatch","Formal",""
"","","","","","psychophysics","172","544432","0.0-9.0-0.0-0.12","null","","null","","","","","","","","","","","","","key","null","NaN","720","446","f","false","3_Stimuli/C_ambi40.png","朋友","Word","Image","1150","1000","自我","Mismatch","Formal",""
"","","","","","psychophysics","173","547432","0.0-9.0-0.0-0.13","null","","null","","","","","","","","","","","","","key","null","NaN","720","446","f","false","3_Stimuli/S_ambi40.png","朋友","Word","Image","1150","1000","他人","Mismatch","Formal",""
"","","","","","psychophysics","174","550434","0.0-9.0-0.0-0.14","null","","null","","","","","","","","","","","","","key","null","NaN","720","446","f","false","3_Stimuli/S_ambi40.png","自我","Word","Image","1150","1000","他人","Mismatch","Formal",""
"","","","","","psychophysics","175","553432","0.0-9.0-0.0-0.15","null","","null","","","","","","","","","","","","","key","null","NaN","720","446","j","false","3_Stimuli/T_ambi40.png","朋友","Word","Image","1150","1000","朋友","Match","Formal",""
"","","","","","psychophysics","176","556434","0.0-9.0-0.0-0.16","null","","null","","","","","","","","","","","","","key","null","NaN","720","446","j","false","3_Stimuli/C_ambi40.png","自我","Word","Image","1150","1000","自我","Match","Formal",""
"","","","","","psychophysics","177","559433","0.0-9.0-0.0-0.17","null","","null","","","","","","","","","","","","","key","null","NaN","720","446","f","false","3_Stimuli/T_ambi40.png","自我","Word","Image","1150","1000","朋友","Mismatch","Formal",""
"","","","","","psychophysics","178","562431","0.0-9.0-0.0-0.18","null","","null","","","","","","","","","","","","","key","null","NaN","720","446","j","false","3_Stimuli/C_ambi40.png","自我","Word","Image","1150","1000","自我","Match","Formal",""
"","","","","","psychophysics","179","565434","0.0-9.0-0.0-0.19","null","","null","","","","","","","","","","","","","key","null","NaN","720","446","f","false","3_Stimuli/T_ambi40.png","自我","Image","Word","1000","1150","朋友","Mismatch","Formal",""
"","","","","","psychophysics","180","568431","0.0-9.0-0.0-0.20","null","","null","","","","","","","","","","","","","key","null","NaN","720","446","f","false","3_Stimuli/T_ambi40.png","他人","Image","Word","1000","1150","朋友","Mismatch","Formal",""
"","","","","","psychophysics","181","571433","0.0-9.0-0.0-0.21","null","","null","","","","","","","","","","","","","key","null","NaN","720","446","j","false","3_Stimuli/S_ambi40.png","他人","Image","Word","1000","1150","他人","Match","Formal",""
"","","","","","psychophysics","182","574431","0.0-9.0-0.0-0.22","null","","null","","","","","","","","","","","","","key","null","NaN","720","446","f","false","3_Stimuli/C_ambi40.png","朋友","Image","Word","1000","1150","自我","Mismatch","Formal",""
"","","","","","psychophysics","183","577431","0.0-9.0-0.0-0.23","null","","null","","","","","","","","","","","","","key","null","NaN","720","446","f","false","3_Stimuli/S_ambi40.png","自我","Image","Word","1000","1150","他人","Mismatch","Formal",""
"","","","","","psychophysics","184","580432","0.0-9.0-0.0-0.24","null","","null","","","","","","","","","","","","","key","null","NaN","720","446","j","false","3_Stimuli/T_ambi40.png","朋友","Image","Word","1000","1150","朋友","Match","Formal",""
"","","","","","psychophysics","185","583430","0.0-9.0-0.0-0.25","null","","null","","","","","","","","","","","","","key","null","NaN","720","446","f","false","3_Stimuli/C_ambi40.png","朋友","Word","Image","1150","1000","自我","Mismatch","Formal",""
"","","","","","psychophysics","186","586428","0.0-9.0-0.0-0.26","null","","null","","","","","","","","","","","","","key","null","NaN","720","446","j","false","3_Stimuli/T_ambi40.png","朋友","Word","Image","1150","1000","朋友","Match","Formal",""
"","","","","","psychophysics","187","589432","0.0-9.0-0.0-0.27","null","","null","","","","","","","","","","","","","key","null","NaN","720","446","j","false","3_Stimuli/T_ambi40.png","朋友","Image","Word","1000","1150","朋友","Match","Formal",""
"","","","","","psychophysics","188","648429","0.0-9.0-0.0-0.28","null","","null","","","","","","","","","","","","","key","null","NaN","720","446","f","false","3_Stimuli/S_ambi40.png","自我","Image","Word","1000","1150","他人","Mismatch","Formal",""
"","","","","","psychophysics","189","708425","0.0-9.0-0.0-0.29","null","","null","","","","","","","","","","","","","key","null","NaN","720","446","f","false","3_Stimuli/S_ambi40.png","自我","Word","Image","1150","1000","他人","Mismatch","Formal",""
"","","","","","psychophysics","190","722585","0.0-9.0-0.0-0.30","null","","null","","","","","","","","","","","","","key","null","NaN","720","446","f","false","3_Stimuli/C_ambi40.png","他人","Image","Word","1000","1150","自我","Mismatch","Formal",""
"","","","","","psychophysics","191","725258","0.0-9.0-0.0-0.31","null","","null","","","","","","","","","","","","","key","null","16.80462420382166","720","446","f","false","3_Stimuli/C_ambi40.png","朋友","Image","Word","1000","1150","自我","Mismatch","Formal",""
"","","","","","psychophysics","192","727923","0.0-9.0-0.0-0.32","null","","null","","","","","","","","","","","","","key","null","16.666000000000018","720","446","j","false","3_Stimuli/S_ambi40.png","他人","Word","Image","1150","1000","他人","Match","Formal",""
"","","","","","psychophysics","193","730588","0.0-9.0-0.0-0.33","null","","null","","","","","","","","","","","","","key","null","16.666000000000018","720","446","j","false","3_Stimuli/C_ambi40.png","自我","Word","Image","1150","1000","自我","Match","Formal",""
"","","","","","psychophysics","194","733243","0.0-9.0-0.0-0.34","null","","null","","","","","","","","","","","","","key","null","16.667658227848044","720","446","f","false","3_Stimuli/S_ambi40.png","朋友","Word","Image","1150","1000","他人","Mismatch","Formal",""
"","","","","","psychophysics","195","735907","0.0-9.0-0.0-0.35","null","","null","","","","","","","","","","","","","key","null","16.666000000000018","720","446","f","false","3_Stimuli/T_ambi40.png","自我","Word","Image","1150","1000","朋友","Mismatch","Formal",""
"","","","","","psychophysics","196","738573","0.0-9.0-0.0-0.36","null","","null","","","","","","","","","","","","","key","null","16.666000000000018","720","446","f","false","3_Stimuli/S_ambi40.png","朋友","Image","Word","1000","1150","他人","Mismatch","Formal",""
"","","","","","psychophysics","197","741238","0.0-9.0-0.0-0.37","null","","null","","","","","","","","","","","","","key","null","16.666000000000018","720","446","j","false","3_Stimuli/S_ambi40.png","他人","Image","Word","1000","1150","他人","Match","Formal",""
"","","","","","psychophysics","198","743895","0.0-9.0-0.0-0.38","null","","null","","","","","","","","","","","","","key","null","16.667658227848044","720","446","j","false","3_Stimuli/S_ambi40.png","他人","Image","Word","1000","1150","他人","Match","Formal",""
"","","","","","psychophysics","199","746554","0.0-9.0-0.0-0.39","null","","null","","","","","","","","","","","","","key","null","16.666000000000018","720","446","j","false","3_Stimuli/C_ambi40.png","自我","Image","Word","1000","1150","自我","Match","Formal",""
"","","","","","psychophysics","200","749220","0.0-9.0-0.0-0.40","null","","null","","","","","","","","","","","","","key","null","16.666000000000018","720","446","j","false","3_Stimuli/C_ambi40.png","自我","Image","Word","1000","1150","自我","Match","Formal",""
"","","","","","psychophysics","201","751884","0.0-9.0-0.0-0.41","null","","null","","","","","","","","","","","","","key","null","16.666000000000018","720","446","j","false","3_Stimuli/C_ambi40.png","自我","Word","Image","1150","1000","自我","Match","Formal",""
"","","","","","psychophysics","202","754546","0.0-9.0-0.0-0.42","null","","null","","","","","","","","","","","","","key","null","16.66766455696227","720","446","f","false","3_Stimuli/T_ambi40.png","他人","Word","Image","1150","1000","朋友","Mismatch","Formal",""
"","","","","","psychophysics","203","757205","0.0-9.0-0.0-0.43","null","","null","","","","","","","","","","","","","key","null","16.666000000000018","720","446","j","false","3_Stimuli/S_ambi40.png","他人","Word","Image","1150","1000","他人","Match","Formal",""
"","","","","","psychophysics","204","759868","0.0-9.0-0.0-0.44","null","","null","","","","","","","","","","","","","key","null","16.666000000000018","720","446","f","false","3_Stimuli/T_ambi40.png","他人","Image","Word","1000","1150","朋友","Mismatch","Formal",""
"","","","","","psychophysics","205","762526","0.0-9.0-0.0-0.45","null","","null","","","","","","","","","","","","","key","null","16.666000000000018","720","446","j","false","3_Stimuli/T_ambi40.png","朋友","Word","Image","1150","1000","朋友","Match","Formal",""
"","","","","","psychophysics","206","765186","0.0-9.0-0.0-0.46","null","","null","","","","","","","","","","","","","key","null","16.667658227848044","720","446","f","false","3_Stimuli/T_ambi40.png","自我","Image","Word","1000","1150","朋友","Mismatch","Formal",""
"","","","","","psychophysics","207","767851","0.0-9.0-0.0-0.47","null","","null","","","","","","","","","","","","","key","null","16.666000000000018","720","446","f","false","3_Stimuli/C_ambi40.png","他人","Word","Image","1150","1000","自我","Mismatch","Formal",""
"","","","","","psychophysics","208","770514","0.0-9.0-0.0-0.48","null","","null","","","","","","","","","","","","","key","null","16.666000000000018","720","446","j","false","3_Stimuli/S_ambi40.png","他人","Image","Word","1000","1150","他人","Match","Formal",""
"","","","","","psychophysics","209","773172","0.0-9.0-0.0-0.49","null","","null","","","","","","","","","","","","","key","null","16.66766455696227","720","446","j","false","3_Stimuli/C_ambi40.png","自我","Word","Image","1150","1000","自我","Match","Formal",""
"","","","","","psychophysics","210","775835","0.0-9.0-0.0-0.50","null","","null","","","","","","","","","","","","","key","null","16.666000000000018","720","446","f","false","3_Stimuli/T_ambi40.png","自我","Word","Image","1150","1000","朋友","Mismatch","Formal",""
"","","","","","psychophysics","211","778494","0.0-9.0-0.0-0.51","null","","null","","","","","","","","","","","","","key","null","16.666000000000018","720","446","j","false","3_Stimuli/S_ambi40.png","他人","Image","Word","1000","1150","他人","Match","Formal",""
"","","","","","psychophysics","212","781155","0.0-9.0-0.0-0.52","null","","null","","","","","","","","","","","","","key","null","16.666000000000018","720","446","f","false","3_Stimuli/C_ambi40.png","朋友","Word","Image","1150","1000","自我","Mismatch","Formal",""
"","","","","","psychophysics","213","783818","0.0-9.0-0.0-0.53","null","","null","","","","","","","","","","","","","key","null","16.667658227848044","720","446","j","false","3_Stimuli/T_ambi40.png","朋友","Word","Image","1150","1000","朋友","Match","Formal",""
"","","","","","psychophysics","214","786481","0.0-9.0-0.0-0.54","null","","null","","","","","","","","","","","","","key","null","16.666000000000018","720","446","j","false","3_Stimuli/T_ambi40.png","朋友","Image","Word","1000","1150","朋友","Match","Formal",""
"","","","","","psychophysics","215","789141","0.0-9.0-0.0-0.55","null","","null","","","","","","","","","","","","","key","null","16.666000000000018","720","446","j","false","3_Stimuli/T_ambi40.png","朋友","Word","Image","1150","1000","朋友","Match","Formal",""
"","","","","","psychophysics","216","791808","0.0-9.0-0.0-0.56","null","","null","","","","","","","","","","","","","key","null","16.66599999999982","720","446","j","false","3_Stimuli/S_ambi40.png","他人","Word","Image","1150","1000","他人","Match","Formal",""
"","","","","","psychophysics","217","794473","0.0-9.0-0.0-0.57","null","","null","","","","","","","","","","","","","key","null","17.097787096774237","720","446","f","false","3_Stimuli/T_ambi40.png","自我","Image","Word","1000","1150","朋友","Mismatch","Formal",""
"","","","","","psychophysics","218","797138","0.0-9.0-0.0-0.58","null","","null","","","","","","","","","","","","","key","null","16.66599999999982","720","446","f","false","3_Stimuli/T_ambi40.png","他人","Word","Image","1150","1000","朋友","Mismatch","Formal",""
"","","","","","psychophysics","219","799800","0.0-9.0-0.0-0.59","null","","null","","","","","","","","","","","","","key","null","16.666000000000018","720","446","f","false","3_Stimuli/C_ambi40.png","他人","Word","Image","1150","1000","自我","Mismatch","Formal",""
"","","","","","psychophysics","220","802465","0.0-9.0-0.0-0.60","null","","null","","","","","","","","","","","","","key","null","16.879666666666683","720","446","f","false","3_Stimuli/T_ambi40.png","他人","Image","Word","1000","1150","朋友","Mismatch","Formal",""
"","","","","","psychophysics","221","805136","0.0-9.0-0.0-0.61","null","","null","","","","","","","","","","","","","key","null","16.667658227848044","720","446","f","false","3_Stimuli/C_ambi40.png","他人","Image","Word","1000","1150","自我","Mismatch","Formal",""
"","","","","","psychophysics","222","807800","0.0-9.0-0.0-0.62","null","","null","","","","","","","","","","","","","key","null","16.666000000000018","720","446","j","false","3_Stimuli/C_ambi40.png","自我","Image","Word","1000","1150","自我","Match","Formal",""
"","","","","","psychophysics","223","810463","0.0-9.0-0.0-0.63","null","","null","","","","","","","","","","","","","key","null","16.666000000000018","720","446","j","false","3_Stimuli/C_ambi40.png","自我","Word","Image","1150","1000","自我","Match","Formal",""
"","","","","","psychophysics","224","813121","0.0-9.0-0.0-0.64","null","","null","","","","","","","","","","","","","key","null","16.66766455696227","720","446","f","false","3_Stimuli/S_ambi40.png","朋友","Image","Word","1000","1150","他人","Mismatch","Formal",""
"","","","","","psychophysics","225","815785","0.0-9.0-0.0-0.65","null","","null","","","","","","","","","","","","","key","null","16.666000000000018","720","446","j","false","3_Stimuli/C_ambi40.png","自我","Image","Word","1000","1150","自我","Match","Formal",""
"","","","","","psychophysics","226","818447","0.0-9.0-0.0-0.66","null","","null","","","","","","","","","","","","","key","null","16.666000000000018","720","446","j","false","3_Stimuli/T_ambi40.png","朋友","Image","Word","1000","1150","朋友","Match","Formal",""
"","","","","","psychophysics","227","821111","0.0-9.0-0.0-0.67","null","","null","","","","","","","","","","","","","key","null","16.666000000000018","720","446","f","false","3_Stimuli/S_ambi40.png","朋友","Word","Image","1150","1000","他人","Mismatch","Formal",""
"","","","","","psychophysics","228","823771","0.0-9.0-0.0-0.68","null","","null","","","","","","","","","","","","","key","null","16.66765822784878","720","446","f","false","3_Stimuli/S_ambi40.png","自我","Word","Image","1150","1000","他人","Mismatch","Formal",""
"","","","","","psychophysics","229","826431","0.0-9.0-0.0-0.69","null","","null","","","","","","","","","","","","","key","null","16.666000000000018","720","446","j","false","3_Stimuli/S_ambi40.png","他人","Word","Image","1150","1000","他人","Match","Formal",""
"","","","","","psychophysics","230","829096","0.0-9.0-0.0-0.70","null","","null","","","","","","","","","","","","","key","null","16.772152866242056","720","446","f","false","3_Stimuli/S_ambi40.png","自我","Image","Word","1000","1150","他人","Mismatch","Formal",""
"","","","","","psychophysics","231","831754","0.0-9.0-0.0-0.71","null","","null","","","","","","","","","","","","","key","null","16.666000000000018","720","446","f","false","3_Stimuli/C_ambi40.png","朋友","Image","Word","1000","1150","自我","Mismatch","Formal",""
"","","","","","psychophysics","232","834415","0.0-9.0-0.0-0.72","null","","null","","","","","","","","","","","","","key","null","16.66766455696227","720","446","j","false","3_Stimuli/T_ambi40.png","朋友","Image","Word","1000","1150","朋友","Match","Formal",""
"","","","","","psychophysics","233","837078","0.0-9.0-0.0-0.73","null","","null","","","","","","","","","","","","","key","null","16.666000000000018","720","446","f","false","3_Stimuli/S_ambi40.png","朋友","Image","Word","1000","1150","他人","Mismatch","Formal",""
"","","","","","psychophysics","234","839737","0.0-9.0-0.0-0.74","null","","null","","","","","","","","","","","","","key","null","16.666000000000018","720","446","j","false","3_Stimuli/S_ambi40.png","他人","Image","Word","1000","1150","他人","Match","Formal",""
"","","","","","psychophysics","235","842397","0.0-9.0-0.0-0.75","null","","null","","","","","","","","","","","","","key","null","16.666000000000018","720","446","j","false","3_Stimuli/S_ambi40.png","他人","Word","Image","1150","1000","他人","Match","Formal",""
"","","","","","psychophysics","236","845061","0.0-9.0-0.0-0.76","null","","null","","","","","","","","","","","","","key","null","16.667658227848044","720","446","f","false","3_Stimuli/T_ambi40.png","自我","Word","Image","1150","1000","朋友","Mismatch","Formal",""
"","","","","","psychophysics","237","847726","0.0-9.0-0.0-0.77","null","","null","","","","","","","","","","","","","key","null","16.666000000000018","720","446","f","false","3_Stimuli/S_ambi40.png","自我","Word","Image","1150","1000","他人","Mismatch","Formal",""
"","","","","","psychophysics","238","850384","0.0-9.0-0.0-0.78","null","","null","","","","","","","","","","","","","key","null","16.666000000000018","720","446","j","false","3_Stimuli/T_ambi40.png","朋友","Word","Image","1150","1000","朋友","Match","Formal",""
"","","","","","psychophysics","239","853046","0.0-9.0-0.0-0.79","null","","null","","","","","","","","","","","","","key","null","16.666000000000018","720","446","j","false","3_Stimuli/T_ambi40.png","朋友","Word","Image","1150","1000","朋友","Match","Formal",""
"","","","","","psychophysics","240","855711","0.0-9.0-0.0-0.80","null","","null","","","","","","","","","","","","","key","null","16.666000000000018","720","446","f","false","3_Stimuli/T_ambi40.png","自我","Image","Word","1000","1150","朋友","Mismatch","Formal",""
"","","","","","psychophysics","241","858369","0.0-9.0-0.0-0.81","null","","null","","","","","","","","","","","","","key","null","16.666000000000018","720","446","f","false","3_Stimuli/C_ambi40.png","他人","Image","Word","1000","1150","自我","Mismatch","Formal",""
"","","","","","psychophysics","242","861032","0.0-9.0-0.0-0.82","null","","null","","","","","","","","","","","","","key","null","16.666000000000018","720","446","j","false","3_Stimuli/C_ambi40.png","自我","Word","Image","1150","1000","自我","Match","Formal",""
"","","","","","psychophysics","243","863698","0.0-9.0-0.0-0.83","null","","null","","","","","","","","","","","","","key","null","16.66765822784878","720","446","f","false","3_Stimuli/T_ambi40.png","他人","Image","Word","1000","1150","朋友","Mismatch","Formal",""
"","","","","","psychophysics","244","866366","0.0-9.0-0.0-0.84","null","","null","","","","","","","","","","","","","key","null","16.666000000000018","720","446","j","false","3_Stimuli/C_ambi40.png","自我","Image","Word","1000","1150","自我","Match","Formal",""
"","","","","","psychophysics","245","869029","0.0-9.0-0.0-0.85","null","","null","","","","","","","","","","","","","key","null","16.666000000000018","720","446","f","false","3_Stimuli/T_ambi40.png","他人","Word","Image","1150","1000","朋友","Mismatch","Formal",""
"","","","","","psychophysics","246","871692","0.0-9.0-0.0-0.86","null","","null","","","","","","","","","","","","","key","null","16.666000000000018","720","446","j","false","3_Stimuli/S_ambi40.png","他人","Word","Image","1150","1000","他人","Match","Formal",""
"","","","","","psychophysics","247","874350","0.0-9.0-0.0-0.87","null","","null","","","","","","","","","","","","","key","null","16.66766455696153","720","446","f","false","3_Stimuli/S_ambi40.png","朋友","Word","Image","1150","1000","他人","Mismatch","Formal",""
"","","","","","psychophysics","248","877011","0.0-9.0-0.0-0.88","null","","null","","","","","","","","","","","","","key","null","16.666000000000018","720","446","j","false","3_Stimuli/S_ambi40.png","他人","Image","Word","1000","1150","他人","Match","Formal",""
"","","","","","psychophysics","249","879677","0.0-9.0-0.0-0.89","null","","null","","","","","","","","","","","","","key","null","16.666000000000018","720","446","f","false","3_Stimuli/S_ambi40.png","自我","Image","Word","1000","1150","他人","Mismatch","Formal",""
"","","","","","psychophysics","250","882341","0.0-9.0-0.0-0.90","null","","null","","","","","","","","","","","","","key","null","16.666000000000018","720","446","j","false","3_Stimuli/C_ambi40.png","自我","Image","Word","1000","1150","自我","Match","Formal",""
"","","","","","psychophysics","251","885001","0.0-9.0-0.0-0.91","null","","null","","","","","","","","","","","","","key","null","16.667658227848044","720","446","f","false","3_Stimuli/C_ambi40.png","朋友","Word","Image","1150","1000","自我","Mismatch","Formal",""
"","","","","","psychophysics","252","887661","0.0-9.0-0.0-0.92","null","","null","","","","","","","","","","","","","key","null","16.66599999999928","720","446","j","false","3_Stimuli/T_ambi40.png","朋友","Image","Word","1000","1150","朋友","Match","Formal",""
"","","","","","psychophysics","253","890324","0.0-9.0-0.0-0.93","null","","null","","","","","","","","","","","","","key","null","16.666000000000018","720","446","j","false","3_Stimuli/C_ambi40.png","自我","Word","Image","1150","1000","自我","Match","Formal",""
"","","","","","psychophysics","254","892983","0.0-9.0-0.0-0.94","null","","null","","","","","","","","","","","","","key","null","16.666000000000018","720","446","f","false","3_Stimuli/C_ambi40.png","他人","Word","Image","1150","1000","自我","Mismatch","Formal",""
"","","","","","psychophysics","255","895645","0.0-9.0-0.0-0.95","null","","null","","","","","","","","","","","","","key","null","16.66766455696153","720","446","f","false","3_Stimuli/C_ambi40.png","朋友","Image","Word","1000","1150","自我","Mismatch","Formal",""
"","","","","","psychophysics","256","898307","0.0-9.0-0.0-0.96","null","","null","","","","","","","","","","","","","key","null","16.666000000000018","720","446","j","false","3_Stimuli/S_ambi40.png","他人","Word","Image","1150","1000","他人","Match","Formal",""
"","","","","","psychophysics","257","900980","0.0-9.0-0.0-0.97","null","","null","","","","","","","","","","","","","key","null","16.666000000000018","720","446","f","false","3_Stimuli/S_ambi40.png","朋友","Word","Image","1150","1000","他人","Mismatch","Formal",""
"","","","","","psychophysics","258","903644","0.0-9.0-0.0-0.98","null","","null","","","","","","","","","","","","","key","null","16.667658227848044","720","446","f","false","3_Stimuli/T_ambi40.png","他人","Word","Image","1150","1000","朋友","Mismatch","Formal",""
"","","","","","psychophysics","259","906307","0.0-9.0-0.0-0.99","null","","null","","","","","","","","","","","","","key","null","16.666000000000018","720","446","j","false","3_Stimuli/T_ambi40.png","朋友","Word","Image","1150","1000","朋友","Match","Formal",""
"","","","","","psychophysics","260","908965","0.0-9.0-0.0-0.100","null","","null","","","","","","","","","","","","","key","null","16.666000000000018","720","446","j","false","3_Stimuli/T_ambi40.png","朋友","Image","Word","1000","1150","朋友","Match","Formal",""
"","","","","","psychophysics","261","911626","0.0-9.0-0.0-0.101","null","","null","","","","","","","","","","","","","key","null","16.666000000000018","720","446","j","false","3_Stimuli/S_ambi40.png","他人","Image","Word","1000","1150","他人","Match","Formal",""
"","","","","","psychophysics","262","914295","0.0-9.0-0.0-0.102","null","","null","","","","","","","","","","","","","key","null","16.66766455696227","720","446","f","false","3_Stimuli/T_ambi40.png","自我","Image","Word","1000","1150","朋友","Mismatch","Formal",""
"","","","","","psychophysics","263","916961","0.0-9.0-0.0-0.103","null","","null","","","","","","","","","","","","","key","null","16.666000000000018","720","446","j","false","3_Stimuli/C_ambi40.png","自我","Word","Image","1150","1000","自我","Match","Formal",""
"","","","","","psychophysics","264","919625","0.0-9.0-0.0-0.104","null","","null","","","","","","","","","","","","","key","null","16.666000000000018","720","446","f","false","3_Stimuli/C_ambi40.png","朋友","Word","Image","1150","1000","自我","Mismatch","Formal",""
"","","","","","psychophysics","265","922290","0.0-9.0-0.0-0.105","null","","null","","","","","","","","","","","","","key","null","16.772152866242056","720","446","f","false","3_Stimuli/C_ambi40.png","他人","Image","Word","1000","1150","自我","Mismatch","Formal",""
"","","","","","psychophysics","266","924954","0.0-9.0-0.0-0.106","null","","null","","","","","","","","","","","","","key","null","16.667658227848044","720","446","f","false","3_Stimuli/T_ambi40.png","自我","Word","Image","1150","1000","朋友","Mismatch","Formal",""
"","","","","","psychophysics","267","927614","0.0-9.0-0.0-0.107","null","","null","","","","","","","","","","","","","key","null","16.772152866242056","720","446","j","false","3_Stimuli/C_ambi40.png","自我","Image","Word","1000","1150","自我","Match","Formal",""
"","","","","","psychophysics","268","930275","0.0-9.0-0.0-0.108","null","","null","","","","","","","","","","","","","key","null","16.666000000000018","720","446","f","false","3_Stimuli/C_ambi40.png","朋友","Image","Word","1000","1150","自我","Mismatch","Formal",""
"","","","","","psychophysics","269","932937","0.0-9.0-0.0-0.109","null","","null","","","","","","","","","","","","","key","null","16.666000000000018","720","446","f","false","3_Stimuli/C_ambi40.png","他人","Word","Image","1150","1000","自我","Mismatch","Formal",""
"","","","","","psychophysics","270","935599","0.0-9.0-0.0-0.110","null","","null","","","","","","","","","","","","","key","null","16.667658227848044","720","446","j","false","3_Stimuli/S_ambi40.png","他人","Image","Word","1000","1150","他人","Match","Formal",""
"","","","","","psychophysics","271","938257","0.0-9.0-0.0-0.111","null","","null","","","","","","","","","","","","","key","null","16.666000000000018","720","446","f","false","3_Stimuli/S_ambi40.png","自我","Word","Image","1150","1000","他人","Mismatch","Formal",""
"","","","","","psychophysics","272","940921","0.0-9.0-0.0-0.112","null","","null","","","","","","","","","","","","","key","null","16.666000000000018","720","446","j","false","3_Stimuli/T_ambi40.png","朋友","Image","Word","1000","1150","朋友","Match","Formal",""
"","","","","","psychophysics","273","943585","0.0-9.0-0.0-0.113","null","","null","","","","","","","","","","","","","key","null","16.66766455696227","720","446","j","false","3_Stimuli/C_ambi40.png","自我","Image","Word","1000","1150","自我","Match","Formal",""
"","","","","","psychophysics","274","946244","0.0-9.0-0.0-0.114","null","","null","","","","","","","","","","","","","key","null","16.66600000000022","720","446","j","false","3_Stimuli/T_ambi40.png","朋友","Word","Image","1150","1000","朋友","Match","Formal",""
"","","","","","psychophysics","275","948903","0.0-9.0-0.0-0.115","null","","null","","","","","","","","","","","","","key","null","16.66599999999928","720","446","f","false","3_Stimuli/S_ambi40.png","自我","Image","Word","1000","1150","他人","Mismatch","Formal",""
"","","","","","psychophysics","276","951567","0.0-9.0-0.0-0.116","null","","null","","","","","","","","","","","","","key","null","16.666000000000018","720","446","f","false","3_Stimuli/T_ambi40.png","他人","Image","Word","1000","1150","朋友","Mismatch","Formal",""
"","","","","","psychophysics","277","954226","0.0-9.0-0.0-0.117","null","","null","","","","","","","","","","","","","key","null","16.667668789808317","720","446","f","false","3_Stimuli/S_ambi40.png","朋友","Image","Word","1000","1150","他人","Mismatch","Formal",""
"","","","","","psychophysics","278","956887","0.0-9.0-0.0-0.118","null","","null","","","","","","","","","","","","","key","null","16.666000000000018","720","446","j","false","3_Stimuli/S_ambi40.png","他人","Word","Image","1150","1000","他人","Match","Formal",""
"","","","","","psychophysics","279","959551","0.0-9.0-0.0-0.119","null","","null","","","","","","","","","","","","","key","null","16.666000000000018","720","446","j","false","3_Stimuli/C_ambi40.png","自我","Word","Image","1150","1000","自我","Match","Formal",""
"","","","","","html-keyboard-response","280","967544","0.0-9.0-1.0","7991","<style>.context{color:white; font-size: 35px; line-height:40px}</style>                        <div><p class='context'>您正确回答了5% 的试次。</p><p class='context'>您的平均反应时为914毫秒。</p><p> <div style = 'color: green'><按任意键进入休息></div></p>","j","","","","","","","","","","","","","","","","","","","","","","","","","","","","",""
"","","","","","html-button-response","281","973913","0.0-9.0-2.0","6343","
                  <p>您当前还剩余5组实验</p>
                  <p>现在是休息时间，当您结束休息后，您可以点击 结束休息 按钮 继续</p>
                  <p>建议休息时间还剩余<span id=""iii"">60</span>秒</p>","0","","","","","","","","","","","","","","","","","","","","","","","","","","","","",""
"","","","","","psychophysics","282","976582","0.0-9.0-0.1-0.120","null","","null","","","","","","","","","","","","","key","null","16.66600000000055","720","446","j","false","3_Stimuli/S_ambi40.png","他人","Image","Word","1000","1150","他人","Match","Formal",""
"","","","","","psychophysics","283","979242","0.0-9.0-0.1-0.121","null","","null","","","","","","","","","","","","","key","null","16.667654088050355","720","446","f","false","3_Stimuli/T_ambi40.png","他人","Image","Word","1000","1150","朋友","Mismatch","Formal",""
"","","","","","psychophysics","284","981901","0.0-9.0-0.1-0.122","null","","null","","","","","","","","","","","","","key","null","16.666000000000018","720","446","f","false","3_Stimuli/T_ambi40.png","自我","Image","Word","1000","1150","朋友","Mismatch","Formal",""
"","","","","","psychophysics","285","984557","0.0-9.0-0.1-0.123","null","","null","","","","","","","","","","","","","key","null","16.666000000000018","720","446","j","false","3_Stimuli/T_ambi40.png","朋友","Word","Image","1150","1000","朋友","Match","Formal",""
"","","","","","psychophysics","286","986400","0.0-9.0-0.1-0.124","690","","j","","","","","","","","","","","","","key","j","16.666000000000377","720","446","j","true","3_Stimuli/C_ambi40.png","自我","Word","Image","1150","1000","自我","Match","Formal",""
"","","","","","psychophysics","287","989060","0.0-9.0-0.1-0.125","null","","null","","","","","","","","","","","","","key","null","16.667658227848044","720","446","j","false","3_Stimuli/T_ambi40.png","朋友","Image","Word","1000","1150","朋友","Match","Formal",""
"","","","","","psychophysics","288","991723","0.0-9.0-0.1-0.126","null","","null","","","","","","","","","","","","","key","null","16.666000000000018","720","446","j","false","3_Stimuli/T_ambi40.png","朋友","Word","Image","1150","1000","朋友","Match","Formal",""
"","","","","","psychophysics","289","994389","0.0-9.0-0.1-0.127","null","","null","","","","","","","","","","","","","key","null","16.666000000000018","720","446","j","false","3_Stimuli/S_ambi40.png","他人","Image","Word","1000","1150","他人","Match","Formal",""
"","","","","","psychophysics","290","997055","0.0-9.0-0.1-0.128","null","","null","","","","","","","","","","","","","key","null","16.666000000000018","720","446","f","false","3_Stimuli/S_ambi40.png","自我","Image","Word","1000","1150","他人","Mismatch","Formal",""
"","","","","","psychophysics","291","999717","0.0-9.0-0.1-0.129","null","","null","","","","","","","","","","","","","key","null","16.66766455696227","720","446","f","false","3_Stimuli/T_ambi40.png","他人","Word","Image","1150","1000","朋友","Mismatch","Formal",""
"","","","","","psychophysics","292","1002376","0.0-9.0-0.1-0.130","null","","null","","","","","","","","","","","","","key","null","16.666000000000018","720","446","f","false","3_Stimuli/C_ambi40.png","他人","Word","Image","1150","1000","自我","Mismatch","Formal",""
"","","","","","psychophysics","293","1005039","0.0-9.0-0.1-0.131","null","","null","","","","","","","","","","","","","key","null","16.66600000000055","720","446","f","false","3_Stimuli/C_ambi40.png","朋友","Word","Image","1150","1000","自我","Mismatch","Formal",""
"","","","","","psychophysics","294","1007700","0.0-9.0-0.1-0.132","null","","null","","","","","","","","","","","","","key","null","16.666000000000018","720","446","f","false","3_Stimuli/C_ambi40.png","他人","Image","Word","1000","1150","自我","Mismatch","Formal",""
"","","","","","psychophysics","295","1010358","0.0-9.0-0.1-0.133","null","","null","","","","","","","","","","","","","key","null","16.666000000000018","720","446","f","false","3_Stimuli/S_ambi40.png","朋友","Word","Image","1150","1000","他人","Mismatch","Formal",""
"","","","","","psychophysics","296","1013020","0.0-9.0-0.1-0.134","null","","null","","","","","","","","","","","","","key","null","16.666000000000018","720","446","j","false","3_Stimuli/C_ambi40.png","自我","Word","Image","1150","1000","自我","Match","Formal",""
"","","","","","psychophysics","297","1015686","0.0-9.0-0.1-0.135","null","","null","","","","","","","","","","","","","key","null","16.666000000000018","720","446","f","false","3_Stimuli/S_ambi40.png","朋友","Image","Word","1000","1150","他人","Mismatch","Formal",""
"","","","","","psychophysics","298","1018352","0.0-9.0-0.1-0.136","null","","null","","","","","","","","","","","","","key","null","16.66766455696227","720","446","j","false","3_Stimuli/T_ambi40.png","朋友","Image","Word","1000","1150","朋友","Match","Formal",""
"","","","","","psychophysics","299","1021011","0.0-9.0-0.1-0.137","null","","null","","","","","","","","","","","","","key","null","16.666000000000018","720","446","f","false","3_Stimuli/T_ambi40.png","自我","Word","Image","1150","1000","朋友","Mismatch","Formal",""
"","","","","","psychophysics","300","1023675","0.0-9.0-0.1-0.138","null","","null","","","","","","","","","","","","","key","null","16.66600000000055","720","446","f","false","3_Stimuli/C_ambi40.png","朋友","Image","Word","1000","1150","自我","Mismatch","Formal",""
"","","","","","psychophysics","301","1026340","0.0-9.0-0.1-0.139","null","","null","","","","","","","","","","","","","key","null","16.66599999999982","720","446","j","false","3_Stimuli/C_ambi40.png","自我","Image","Word","1000","1150","自我","Match","Formal",""
"","","","","","psychophysics","302","1029005","0.0-9.0-0.1-0.140","null","","null","","","","","","","","","","","","","key","null","16.667647798742614","720","446","f","false","3_Stimuli/S_ambi40.png","自我","Word","Image","1150","1000","他人","Mismatch","Formal",""
"","","","","","psychophysics","303","1031667","0.0-9.0-0.1-0.141","null","","null","","","","","","","","","","","","","key","null","16.666000000000018","720","446","j","false","3_Stimuli/S_ambi40.png","他人","Word","Image","1150","1000","他人","Match","Formal",""
"","","","","","psychophysics","304","1034332","0.0-9.0-0.1-0.142","null","","null","","","","","","","","","","","","","key","null","16.66599999999928","720","446","j","false","3_Stimuli/S_ambi40.png","他人","Word","Image","1150","1000","他人","Match","Formal",""
"","","","","","psychophysics","305","1036989","0.0-9.0-0.1-0.143","null","","null","","","","","","","","","","","","","key","null","16.666000000000018","720","446","j","false","3_Stimuli/C_ambi40.png","自我","Image","Word","1000","1150","自我","Match","Formal",""
"","","","","","psychophysics","306","1039653","0.0-9.0-0.1-0.144","null","","null","","","","","","","","","","","","","key","null","16.66766455696227","720","446","f","false","3_Stimuli/T_ambi40.png","自我","Word","Image","1150","1000","朋友","Mismatch","Formal",""
"","","","","","psychophysics","307","1042314","0.0-9.0-0.1-0.145","null","","null","","","","","","","","","","","","","key","null","16.879666666666683","720","446","j","false","3_Stimuli/T_ambi40.png","朋友","Image","Word","1000","1150","朋友","Match","Formal",""
"","","","","","psychophysics","308","1044974","0.0-9.0-0.1-0.146","null","","null","","","","","","","","","","","","","key","null","16.666000000000018","720","446","f","false","3_Stimuli/S_ambi40.png","自我","Word","Image","1150","1000","他人","Mismatch","Formal",""
"","","","","","psychophysics","309","1047634","0.0-9.0-0.1-0.147","null","","null","","","","","","","","","","","","","key","null","16.666000000000018","720","446","j","false","3_Stimuli/C_ambi40.png","自我","Word","Image","1150","1000","自我","Match","Formal",""
"","","","","","psychophysics","310","1050291","0.0-9.0-0.1-0.148","null","","null","","","","","","","","","","","","","key","null","16.667658227847305","720","446","j","false","3_Stimuli/C_ambi40.png","自我","Word","Image","1150","1000","自我","Match","Formal",""
"","","","","","psychophysics","311","1052952","0.0-9.0-0.1-0.149","null","","null","","","","","","","","","","","","","key","null","16.66599999999928","720","446","f","false","3_Stimuli/C_ambi40.png","朋友","Image","Word","1000","1150","自我","Mismatch","Formal",""
"","","","","","psychophysics","312","1055619","0.0-9.0-0.1-0.150","null","","null","","","","","","","","","","","","","key","null","16.666000000000754","720","446","j","false","3_Stimuli/S_ambi40.png","他人","Word","Image","1150","1000","他人","Match","Formal",""
"","","","","","psychophysics","313","1058284","0.0-9.0-0.1-0.151","null","","null","","","","","","","","","","","","","key","null","16.66766455696153","720","446","f","false","3_Stimuli/S_ambi40.png","朋友","Image","Word","1000","1150","他人","Mismatch","Formal",""
"","","","","","psychophysics","314","1060946","0.0-9.0-0.1-0.152","null","","null","","","","","","","","","","","","","key","null","16.66599999999928","720","446","j","false","3_Stimuli/S_ambi40.png","他人","Image","Word","1000","1150","他人","Match","Formal",""
"","","","","","psychophysics","315","1063603","0.0-9.0-0.1-0.153","null","","null","","","","","","","","","","","","","key","null","16.7721528662428","720","446","j","false","3_Stimuli/S_ambi40.png","他人","Word","Image","1150","1000","他人","Match","Formal",""
"","","","","","psychophysics","316","1066266","0.0-9.0-0.1-0.154","null","","null","","","","","","","","","","","","","key","null","16.666000000000754","720","446","j","false","3_Stimuli/C_ambi40.png","自我","Image","Word","1000","1150","自我","Match","Formal",""
"","","","","","psychophysics","317","1068928","0.0-9.0-0.1-0.155","null","","null","","","","","","","","","","","","","key","null","16.667658227848044","720","446","j","false","3_Stimuli/T_ambi40.png","朋友","Word","Image","1150","1000","朋友","Match","Formal",""
"","","","","","psychophysics","318","1071586","0.0-9.0-0.1-0.156","null","","null","","","","","","","","","","","","","key","null","16.666000000000754","720","446","j","false","3_Stimuli/S_ambi40.png","他人","Image","Word","1000","1150","他人","Match","Formal",""
"","","","","","psychophysics","319","1074250","0.0-9.0-0.1-0.157","null","","null","","","","","","","","","","","","","key","null","16.66599999999928","720","446","f","false","3_Stimuli/S_ambi40.png","自我","Image","Word","1000","1150","他人","Mismatch","Formal",""
"","","","","","psychophysics","320","1076914","0.0-9.0-0.1-0.158","null","","null","","","","","","","","","","","","","key","null","16.66599999999928","720","446","f","false","3_Stimuli/T_ambi40.png","他人","Image","Word","1000","1150","朋友","Mismatch","Formal",""
"","","","","","psychophysics","321","1079576","0.0-9.0-0.1-0.159","null","","null","","","","","","","","","","","","","key","null","16.667664556963004","720","446","j","false","3_Stimuli/C_ambi40.png","自我","Image","Word","1000","1150","自我","Match","Formal",""
"","","","","","psychophysics","322","1082253","0.0-9.0-0.1-0.160","null","","null","","","","","","","","","","","","","key","null","16.66600000000055","720","446","f","false","3_Stimuli/C_ambi40.png","他人","Image","Word","1000","1150","自我","Mismatch","Formal",""
"","","","","","psychophysics","323","1084913","0.0-9.0-0.1-0.161","null","","null","","","","","","","","","","","","","key","null","16.66599999999928","720","446","f","false","3_Stimuli/T_ambi40.png","他人","Word","Image","1150","1000","朋友","Mismatch","Formal",""
"","","","","","psychophysics","324","1087592","0.0-9.0-0.1-0.162","null","","null","","","","","","","","","","","","","key","null","16.66600000000055","720","446","j","false","3_Stimuli/T_ambi40.png","朋友","Image","Word","1000","1150","朋友","Match","Formal",""
"","","","","","psychophysics","325","1090249","0.0-9.0-0.1-0.163","null","","null","","","","","","","","","","","","","key","null","16.667658227848044","720","446","f","false","3_Stimuli/S_ambi40.png","朋友","Word","Image","1150","1000","他人","Mismatch","Formal",""
"","","","","","psychophysics","326","1092913","0.0-9.0-0.1-0.164","null","","null","","","","","","","","","","","","","key","null","16.666000000000754","720","446","f","false","3_Stimuli/C_ambi40.png","朋友","Word","Image","1150","1000","自我","Mismatch","Formal",""
"","","","","","psychophysics","327","1095576","0.0-9.0-0.1-0.165","null","","null","","","","","","","","","","","","","key","null","16.666000000000754","720","446","j","false","3_Stimuli/T_ambi40.png","朋友","Word","Image","1150","1000","朋友","Match","Formal",""
"","","","","","psychophysics","328","1098235","0.0-9.0-0.1-0.166","null","","null","","","","","","","","","","","","","key","null","16.667658227848044","720","446","f","false","3_Stimuli/T_ambi40.png","自我","Image","Word","1000","1150","朋友","Mismatch","Formal",""
"","","","","","psychophysics","329","1100897","0.0-9.0-0.1-0.167","null","","null","","","","","","","","","","","","","key","null","16.666000000000754","720","446","f","false","3_Stimuli/C_ambi40.png","他人","Word","Image","1150","1000","自我","Mismatch","Formal",""
"","","","","","psychophysics","330","1103559","0.0-9.0-0.1-0.168","null","","null","","","","","","","","","","","","","key","null","16.66599999999928","720","446","f","false","3_Stimuli/S_ambi40.png","朋友","Image","Word","1000","1150","他人","Mismatch","Formal",""
"","","","","","psychophysics","331","1106219","0.0-9.0-0.1-0.169","null","","null","","","","","","","","","","","","","key","null","16.66599999999928","720","446","f","false","3_Stimuli/S_ambi40.png","自我","Image","Word","1000","1150","他人","Mismatch","Formal",""
"","","","","","psychophysics","332","1108880","0.0-9.0-0.1-0.170","null","","null","","","","","","","","","","","","","key","null","16.667664556963004","720","446","f","false","3_Stimuli/S_ambi40.png","自我","Word","Image","1150","1000","他人","Mismatch","Formal",""
"","","","","","psychophysics","333","1111542","0.0-9.0-0.1-0.171","null","","null","","","","","","","","","","","","","key","null","16.66599999999928","720","446","j","false","3_Stimuli/C_ambi40.png","自我","Word","Image","1150","1000","自我","Match","Formal",""
"","","","","","psychophysics","334","1114201","0.0-9.0-0.1-0.172","null","","null","","","","","","","","","","","","","key","null","16.66599999999928","720","446","j","false","3_Stimuli/C_ambi40.png","自我","Image","Word","1000","1150","自我","Match","Formal",""
"","","","","","psychophysics","335","1116862","0.0-9.0-0.1-0.173","null","","null","","","","","","","","","","","","","key","null","16.666000000000754","720","446","j","false","3_Stimuli/S_ambi40.png","他人","Image","Word","1000","1150","他人","Match","Formal",""
"","","","","","psychophysics","336","1119527","0.0-9.0-0.1-0.174","null","","null","","","","","","","","","","","","","key","null","16.667658227848044","720","446","f","false","3_Stimuli/C_ambi40.png","他人","Word","Image","1150","1000","自我","Mismatch","Formal",""
"","","","","","psychophysics","337","1122190","0.0-9.0-0.1-0.175","null","","null","","","","","","","","","","","","","key","null","16.666000000000754","720","446","j","false","3_Stimuli/S_ambi40.png","他人","Word","Image","1150","1000","他人","Match","Formal",""
"","","","","","psychophysics","338","1124850","0.0-9.0-0.1-0.176","null","","null","","","","","","","","","","","","","key","null","16.666000000000754","720","446","f","false","3_Stimuli/C_ambi40.png","朋友","Image","Word","1000","1150","自我","Mismatch","Formal",""
"","","","","","psychophysics","339","1127511","0.0-9.0-0.1-0.177","null","","null","","","","","","","","","","","","","key","null","16.66599999999928","720","446","f","false","3_Stimuli/T_ambi40.png","自我","Word","Image","1150","1000","朋友","Mismatch","Formal",""
"","","","","","psychophysics","340","1130175","0.0-9.0-0.1-0.178","null","","null","","","","","","","","","","","","","key","null","16.66766455696153","720","446","f","false","3_Stimuli/T_ambi40.png","他人","Image","Word","1000","1150","朋友","Mismatch","Formal",""
"","","","","","psychophysics","341","1132834","0.0-9.0-0.1-0.179","null","","null","","","","","","","","","","","","","key","null","16.666000000000754","720","446","j","false","3_Stimuli/T_ambi40.png","朋友","Word","Image","1150","1000","朋友","Match","Formal",""
"","","","","","psychophysics","342","1135495","0.0-9.0-0.1-0.180","null","","null","","","","","","","","","","","","","key","null","16.66599999999928","720","446","j","false","3_Stimuli/C_ambi40.png","自我","Word","Image","1150","1000","自我","Match","Formal",""
"","","","","","psychophysics","343","1138157","0.0-9.0-0.1-0.181","null","","null","","","","","","","","","","","","","key","null","16.667658227848044","720","446","j","false","3_Stimuli/T_ambi40.png","朋友","Image","Word","1000","1150","朋友","Match","Formal",""
"","","","","","psychophysics","344","1140836","0.0-9.0-0.1-0.182","null","","null","","","","","","","","","","","","","key","null","16.665999999999087","720","446","f","false","3_Stimuli/S_ambi40.png","朋友","Word","Image","1150","1000","他人","Mismatch","Formal",""
"","","","","","psychophysics","345","1143493","0.0-9.0-0.1-0.183","null","","null","","","","","","","","","","","","","key","null","16.66599999999928","720","446","j","false","3_Stimuli/S_ambi40.png","他人","Word","Image","1150","1000","他人","Match","Formal",""
"","","","","","psychophysics","346","1146157","0.0-9.0-0.1-0.184","null","","null","","","","","","","","","","","","","key","null","16.666000000000754","720","446","f","false","3_Stimuli/C_ambi40.png","他人","Image","Word","1000","1150","自我","Mismatch","Formal",""
"","","","","","psychophysics","347","1148814","0.0-9.0-0.1-0.185","null","","null","","","","","","","","","","","","","key","null","16.66766455696153","720","446","j","false","3_Stimuli/S_ambi40.png","他人","Image","Word","1000","1150","他人","Match","Formal",""
"","","","","","psychophysics","348","1151476","0.0-9.0-0.1-0.186","null","","null","","","","","","","","","","","","","key","null","16.66599999999928","720","446","f","false","3_Stimuli/C_ambi40.png","朋友","Word","Image","1150","1000","自我","Mismatch","Formal",""
"","","","","","psychophysics","349","1154142","0.0-9.0-0.1-0.187","null","","null","","","","","","","","","","","","","key","null","16.666000000000754","720","446","f","false","3_Stimuli/T_ambi40.png","他人","Word","Image","1150","1000","朋友","Mismatch","Formal",""
"","","","","","psychophysics","350","1156804","0.0-9.0-0.1-0.188","null","","null","","","","","","","","","","","","","key","null","16.666000000000754","720","446","j","false","3_Stimuli/C_ambi40.png","自我","Image","Word","1000","1150","自我","Match","Formal",""
"","","","","","psychophysics","351","1159462","0.0-9.0-0.1-0.189","null","","null","","","","","","","","","","","","","key","null","16.667647798741882","720","446","j","false","3_Stimuli/T_ambi40.png","朋友","Word","Image","1150","1000","朋友","Match","Formal",""
"","","","","","psychophysics","352","1162124","0.0-9.0-0.1-0.190","null","","null","","","","","","","","","","","","","key","null","16.666000000000754","720","446","f","false","3_Stimuli/T_ambi40.png","自我","Image","Word","1000","1150","朋友","Mismatch","Formal",""
"","","","","","psychophysics","353","1164788","0.0-9.0-0.1-0.191","null","","null","","","","","","","","","","","","","key","null","16.66599999999928","720","446","j","false","3_Stimuli/T_ambi40.png","朋友","Image","Word","1000","1150","朋友","Match","Formal",""
"","","","","","psychophysics","354","1167449","0.0-9.0-0.1-0.192","null","","null","","","","","","","","","","","","","key","null","16.66599999999928","720","446","f","false","3_Stimuli/C_ambi40.png","朋友","Word","Image","1150","1000","自我","Mismatch","Formal",""
"","","","","","psychophysics","355","1170114","0.0-9.0-0.1-0.193","null","","null","","","","","","","","","","","","","key","null","16.667664556963004","720","446","f","false","3_Stimuli/C_ambi40.png","他人","Image","Word","1000","1150","自我","Mismatch","Formal",""
"","","","","","psychophysics","356","1172778","0.0-9.0-0.1-0.194","null","","null","","","","","","","","","","","","","key","null","16.665999999999087","720","446","f","false","3_Stimuli/S_ambi40.png","自我","Word","Image","1150","1000","他人","Mismatch","Formal",""
"","","","","","psychophysics","357","1175442","0.0-9.0-0.1-0.195","null","","null","","","","","","","","","","","","","key","null","16.66599999999928","720","446","f","false","3_Stimuli/S_ambi40.png","朋友","Word","Image","1150","1000","他人","Mismatch","Formal",""
"","","","","","psychophysics","358","1178108","0.0-9.0-0.1-0.196","null","","null","","","","","","","","","","","","","key","null","16.666000000000754","720","446","j","false","3_Stimuli/S_ambi40.png","他人","Image","Word","1000","1150","他人","Match","Formal",""
"","","","","","psychophysics","359","1180771","0.0-9.0-0.1-0.197","null","","null","","","","","","","","","","","","","key","null","16.667658227848044","720","446","f","false","3_Stimuli/C_ambi40.png","他人","Word","Image","1150","1000","自我","Mismatch","Formal",""
"","","","","","psychophysics","360","1183426","0.0-9.0-0.1-0.198","null","","null","","","","","","","","","","","","","key","null","16.66600000000096","720","446","j","false","3_Stimuli/C_ambi40.png","自我","Word","Image","1150","1000","自我","Match","Formal",""
"","","","","","psychophysics","361","1186092","0.0-9.0-0.1-0.199","null","","null","","","","","","","","","","","","","key","null","16.666000000000754","720","446","j","false","3_Stimuli/T_ambi40.png","朋友","Image","Word","1000","1150","朋友","Match","Formal",""
"","","","","","psychophysics","362","1188754","0.0-9.0-0.1-0.200","null","","null","","","","","","","","","","","","","key","null","16.66766455696153","720","446","f","false","3_Stimuli/T_ambi40.png","他人","Word","Image","1150","1000","朋友","Mismatch","Formal",""
"","","","","","psychophysics","363","1191419","0.0-9.0-0.1-0.201","null","","null","","","","","","","","","","","","","key","null","16.666000000000754","720","446","j","false","3_Stimuli/T_ambi40.png","朋友","Word","Image","1150","1000","朋友","Match","Formal",""
"","","","","","psychophysics","364","1194076","0.0-9.0-0.1-0.202","null","","null","","","","","","","","","","","","","key","null","16.666000000000754","720","446","f","false","3_Stimuli/T_ambi40.png","他人","Image","Word","1000","1150","朋友","Mismatch","Formal",""
"","","","","","psychophysics","365","1196743","0.0-9.0-0.1-0.203","null","","null","","","","","","","","","","","","","key","null","16.665999999999087","720","446","j","false","3_Stimuli/S_ambi40.png","他人","Image","Word","1000","1150","他人","Match","Formal",""
"","","","","","psychophysics","366","1199410","0.0-9.0-0.1-0.204","null","","null","","","","","","","","","","","","","key","null","16.667647798741882","720","446","j","false","3_Stimuli/T_ambi40.png","朋友","Word","Image","1150","1000","朋友","Match","Formal",""
"","","","","","psychophysics","367","1202075","0.0-9.0-0.1-0.205","null","","null","","","","","","","","","","","","","key","null","16.66599999999928","720","446","f","false","3_Stimuli/S_ambi40.png","自我","Image","Word","1000","1150","他人","Mismatch","Formal",""
"","","","","","psychophysics","368","1204738","0.0-9.0-0.1-0.206","null","","null","","","","","","","","","","","","","key","null","16.66599999999928","720","446","j","false","3_Stimuli/C_ambi40.png","自我","Word","Image","1150","1000","自我","Match","Formal",""
"","","","","","psychophysics","369","1207401","0.0-9.0-0.1-0.207","null","","null","","","","","","","","","","","","","key","null","16.666000000000754","720","446","j","false","3_Stimuli/C_ambi40.png","自我","Image","Word","1000","1150","自我","Match","Formal",""
"","","","","","psychophysics","370","1210059","0.0-9.0-0.1-0.208","null","","null","","","","","","","","","","","","","key","null","16.66766455696153","720","446","j","false","3_Stimuli/C_ambi40.png","自我","Image","Word","1000","1150","自我","Match","Formal",""
"","","","","","psychophysics","371","1212720","0.0-9.0-0.1-0.209","null","","null","","","","","","","","","","","","","key","null","16.879666666665937","720","446","f","false","3_Stimuli/C_ambi40.png","朋友","Image","Word","1000","1150","自我","Mismatch","Formal",""
"","","","","","psychophysics","372","1215384","0.0-9.0-0.1-0.210","null","","null","","","","","","","","","","","","","key","null","16.666000000000754","720","446","f","false","3_Stimuli/T_ambi40.png","自我","Image","Word","1000","1150","朋友","Mismatch","Formal",""
"","","","","","psychophysics","373","1218043","0.0-9.0-0.1-0.211","null","","null","","","","","","","","","","","","","key","null","16.666000000000754","720","446","f","false","3_Stimuli/T_ambi40.png","自我","Word","Image","1150","1000","朋友","Mismatch","Formal",""
"","","","","","psychophysics","374","1220704","0.0-9.0-0.1-0.212","null","","null","","","","","","","","","","","","","key","null","16.667658227848044","720","446","j","false","3_Stimuli/S_ambi40.png","他人","Word","Image","1150","1000","他人","Match","Formal",""
"","","","","","psychophysics","375","1223370","0.0-9.0-0.1-0.213","null","","null","","","","","","","","","","","","","key","null","16.666000000000754","720","446","j","false","3_Stimuli/S_ambi40.png","他人","Word","Image","1150","1000","他人","Match","Formal",""
"","","","","","psychophysics","376","1226032","0.0-9.0-0.1-0.214","null","","null","","","","","","","","","","","","","key","null","16.66599999999928","720","446","f","false","3_Stimuli/S_ambi40.png","朋友","Image","Word","1000","1150","他人","Mismatch","Formal",""
"","","","","","psychophysics","377","1228689","0.0-9.0-0.1-0.215","null","","null","","","","","","","","","","","","","key","null","16.773828025477208","720","446","j","false","3_Stimuli/T_ambi40.png","朋友","Image","Word","1000","1150","朋友","Match","Formal",""
"","","","","","psychophysics","378","1231353","0.0-9.0-0.1-0.216","null","","null","","","","","","","","","","","","","key","null","16.666000000000754","720","446","j","false","3_Stimuli/C_ambi40.png","自我","Word","Image","1150","1000","自我","Match","Formal",""
"","","","","","psychophysics","379","1234015","0.0-9.0-0.1-0.217","null","","null","","","","","","","","","","","","","key","null","16.66599999999928","720","446","j","false","3_Stimuli/S_ambi40.png","他人","Image","Word","1000","1150","他人","Match","Formal",""
"","","","","","psychophysics","380","1236704","0.0-9.0-0.1-0.218","null","","null","","","","","","","","","","","","","key","null","16.665999999999087","720","446","f","false","3_Stimuli/S_ambi40.png","朋友","Image","Word","1000","1150","他人","Mismatch","Formal",""
"","","","","","psychophysics","381","1239369","0.0-9.0-0.1-0.219","null","","null","","","","","","","","","","","","","key","null","16.667658227849515","720","446","j","false","3_Stimuli/T_ambi40.png","朋友","Image","Word","1000","1150","朋友","Match","Formal",""
"","","","","","psychophysics","382","1242027","0.0-9.0-0.1-0.220","null","","null","","","","","","","","","","","","","key","null","16.66599999999928","720","446","f","false","3_Stimuli/S_ambi40.png","自我","Word","Image","1150","1000","他人","Mismatch","Formal",""
"","","","","","psychophysics","383","1244686","0.0-9.0-0.1-0.221","null","","null","","","","","","","","","","","","","key","null","16.666000000000754","720","446","j","false","3_Stimuli/S_ambi40.png","他人","Word","Image","1150","1000","他人","Match","Formal",""
"","","","","","psychophysics","384","1247353","0.0-9.0-0.1-0.222","null","","null","","","","","","","","","","","","","key","null","16.666000000000754","720","446","f","false","3_Stimuli/S_ambi40.png","自我","Image","Word","1000","1150","他人","Mismatch","Formal",""
