"success","timeout","failed_images","failed_audio","failed_video","trial_type","trial_index","time_elapsed","internal_node_id","rt","stimulus","response","value","item_width_mm","item_height_mm","item_width_px","px2mm","view_dist_mm","item_width_deg","px2deg","scale_factor","win_width_deg","win_height_deg","view_history","response_type","key_press","avg_frame_time","center_x","center_y","correct_response","correct","Image","word","target","test","image_start","word_start","Valence","Matchness","exp_condition","screen_id"
"true","false","[]","[]","[]","preload","0","32","0.0-0.0","","","","","","","","","","","","","","","","","","","","","","","","","","","","","","","",""
"","","","","","html-keyboard-response","1","1462","0.0-1.0","1430","
     <p>您好，欢迎参加本次实验。</p>
     <p>为充分保障您的权利，请确保您已经知晓并同意《参与实验同意书》以及《数据公开知情同意书》。</p>
     <p>如果您未见过上述内容，请咨询实验员。</p>
     <p>如果您选择继续实验，则表示您已经清楚两份知情同意书的内容并同意。</p>
     <p> <div style = ""color: green""><按任意键至下页></div> </p>
     "," ","","","","","","","","","","","","","","","","","","","","","","","","","","","","",""
"","","","","","html-keyboard-response","2","2354","0.0-2.0","891","
   <p>本实验首先需要您填写一些基本个人信息。</p>
   <p> <div style = ""color: green""><按任意键至下页></div></p>
   "," ","","","","","","","","","","","","","","","","","","","","","","","","","","","","",""
"","","","","","call-function","3","2354","0.0-3.0-0.0","","","","","","","","","","","","","","","","","","","","","","","","","","","","","","","",""
"","","","","","survey-html-form","4","6995","0.0-3.0-1.0","4640","","{""Q0"":""987654321""}","","","","","","","","","","","","","","","","","","","","","","","","","","","","",""
"","","","","","html-button-response","5","7707","0.0-3.0-2.0","709","<p style = 'color : white'>您的性别</p>","0","","","","","","","","","","","","","","","","","","","","","","","","","","","","",""
"","","","","","survey-html-form","6","10544","0.0-3.0-3.0","2835","","{""Q0"":""1998""}","","","","","","","","","","","","","","","","","","","","","","","","","","","","",""
"","","","","","survey-html-form","7","12210","0.0-3.0-4.0","1666","","{""Q0"":""7""}","","","","","","","","","","","","","","","","","","","","","","","","","","","","",""
"","","","","","virtual-chinrest","8","19890","0.0-4.0","7678","","","","85.6","53.98","317.44022648752707","3.707701845374316","771.72","6.3488045297505415","50","0.7875498413236643","29.96","15.88","","","","","","","","","","","","","","","","","",""
"true","","","","","fullscreen","9","22760","0.0-5.0","","","","","","","","","","","","","","","","","","","","","","","","","","","","","","","",""
"","","","","","instructions","10","74201","0.0-6.0","51440","","","","","","","","","","","","","","[{""page_index"":0,""viewing_time"":3328},{""page_index"":1,""viewing_time"":46217},{""page_index"":2,""viewing_time"":1135},{""page_index"":3,""viewing_time"":760}]","","","","","","","","","","","","","","","","",""
"","","","","","psychophysics","11","76492","0.0-7.0-0.0-0.0","1137","","j","","","","","","","","","","","","","key","j","4.1661115173674546","768","428","j","true","3_Stimuli/T_ambi40.png","自我","Word","Image","1150","1000","自我","Match","Practice",""
"","","","","","html-keyboard-response","12","76794","0.0-7.0-0.0-1.0","null","<span style='color:GreenYellow; font-size: 70px;'>正确! </span>","null","","","","","","","","","","","","","","","","","","","","","","","","","","","","","feedback"
"","","","","","psychophysics","13","78923","0.0-7.0-0.0-0.1","977","","f","","","","","","","","","","","","","key","f","4.164469548133617","768","428","f","true","3_Stimuli/S_ambi40.png","朋友","Image","Word","1000","1150","他人","Mismatch","Practice",""
"","","","","","html-keyboard-response","14","79235","0.0-7.0-0.0-1.1","null","<span style='color:GreenYellow; font-size: 70px;'>正确! </span>","null","","","","","","","","","","","","","","","","","","","","","","","","","","","","","feedback"
"","","","","","psychophysics","15","81135","0.0-7.0-0.0-0.2","748","","j","","","","","","","","","","","","","key","j","4.1613039647576855","768","428","j","true","3_Stimuli/T_ambi40.png","自我","Image","Word","1000","1150","自我","Match","Practice",""
"","","","","","html-keyboard-response","16","81450","0.0-7.0-0.0-1.2","null","<span style='color:GreenYellow; font-size: 70px;'>正确! </span>","null","","","","","","","","","","","","","","","","","","","","","","","","","","","","","feedback"
"","","","","","psychophysics","17","83432","0.0-7.0-0.0-0.3","832","","j","","","","","","","","","","","","","key","j","4.1661329113924115","768","428","f","false","3_Stimuli/C_ambi40.png","他人","Image","Word","1000","1150","朋友","Mismatch","Practice",""
"","","","","","html-keyboard-response","18","83734","0.0-7.0-0.0-1.3","null","<span style='color:red; font-size: 70px;'>错误! </span>","null","","","","","","","","","","","","","","","","","","","","","","","","","","","","","feedback"
"","","","","","psychophysics","19","85531","0.0-7.0-0.0-0.4","644","","j","","","","","","","","","","","","","key","j","4.1651186046511715","768","428","j","true","3_Stimuli/T_ambi40.png","自我","Word","Image","1150","1000","自我","Match","Practice",""
"","","","","","html-keyboard-response","20","85835","0.0-7.0-0.0-1.4","null","<span style='color:GreenYellow; font-size: 70px;'>正确! </span>","null","","","","","","","","","","","","","","","","","","","","","","","","","","","","","feedback"
"","","","","","psychophysics","21","87559","0.0-7.0-0.0-0.5","573","","j","","","","","","","","","","","","","key","j","4.166014527845032","768","428","j","true","3_Stimuli/S_ambi40.png","他人","Word","Image","1150","1000","他人","Match","Practice",""
"","","","","","html-keyboard-response","22","87875","0.0-7.0-0.0-1.5","null","<span style='color:GreenYellow; font-size: 70px;'>正确! </span>","null","","","","","","","","","","","","","","","","","","","","","","","","","","","","","feedback"
"","","","","","psychophysics","23","89640","0.0-7.0-0.0-0.6","612","","j","","","","","","","","","","","","","key","j","4.16483135391924","768","428","f","false","3_Stimuli/T_ambi40.png","他人","Image","Word","1000","1150","自我","Mismatch","Practice",""
"","","","","","html-keyboard-response","24","89951","0.0-7.0-0.0-1.6","null","<span style='color:red; font-size: 70px;'>错误! </span>","null","","","","","","","","","","","","","","","","","","","","","","","","","","","","","feedback"
"","","","","","psychophysics","25","91887","0.0-7.0-0.0-0.7","784","","f","","","","","","","","","","","","","key","f","4.164974137931024","768","428","f","true","3_Stimuli/S_ambi40.png","自我","Image","Word","1000","1150","他人","Mismatch","Practice",""
"","","","","","html-keyboard-response","26","92193","0.0-7.0-0.0-1.7","null","<span style='color:GreenYellow; font-size: 70px;'>正确! </span>","null","","","","","","","","","","","","","","","","","","","","","","","","","","","","","feedback"
"","","","","","psychophysics","27","94505","0.0-7.0-0.0-0.8","1157","","f","","","","","","","","","","","","","key","f","4.162826714801454","768","428","f","true","3_Stimuli/C_ambi40.png","他人","Word","Image","1150","1000","朋友","Mismatch","Practice",""
"","","","","","html-keyboard-response","28","94814","0.0-7.0-0.0-1.8","null","<span style='color:GreenYellow; font-size: 70px;'>正确! </span>","null","","","","","","","","","","","","","","","","","","","","","","","","","","","","","feedback"
"","","","","","psychophysics","29","96875","0.0-7.0-0.0-0.9","906","","j","","","","","","","","","","","","","key","j","4.165902636916822","768","428","j","true","3_Stimuli/S_ambi40.png","他人","Image","Word","1000","1150","他人","Match","Practice",""
"","","","","","html-keyboard-response","30","97180","0.0-7.0-0.0-1.9","null","<span style='color:GreenYellow; font-size: 70px;'>正确! </span>","null","","","","","","","","","","","","","","","","","","","","","","","","","","","","","feedback"
"","","","","","psychophysics","31","99199","0.0-7.0-0.0-0.10","866","","f","","","","","","","","","","","","","key","f","4.170770186335381","768","428","f","true","3_Stimuli/T_ambi40.png","他人","Word","Image","1150","1000","自我","Mismatch","Practice",""
"","","","","","html-keyboard-response","32","99500","0.0-7.0-0.0-1.10","null","<span style='color:GreenYellow; font-size: 70px;'>正确! </span>","null","","","","","","","","","","","","","","","","","","","","","","","","","","","","","feedback"
"","","","","","psychophysics","33","101287","0.0-7.0-0.0-0.11","635","","j","","","","","","","","","","","","","key","j","4.198721040189111","768","428","j","true","3_Stimuli/T_ambi40.png","自我","Image","Word","1000","1150","自我","Match","Practice",""
"","","","","","html-keyboard-response","34","101601","0.0-7.0-0.0-1.11","null","<span style='color:GreenYellow; font-size: 70px;'>正确! </span>","null","","","","","","","","","","","","","","","","","","","","","","","","","","","","","feedback"
"","","","","","psychophysics","35","103471","0.0-7.0-0.0-0.12","715","","j","","","","","","","","","","","","","key","j","4.166447427293069","768","428","f","false","3_Stimuli/S_ambi40.png","朋友","Word","Image","1150","1000","他人","Mismatch","Practice",""
"","","","","","html-keyboard-response","36","103787","0.0-7.0-0.0-1.12","null","<span style='color:red; font-size: 70px;'>错误! </span>","null","","","","","","","","","","","","","","","","","","","","","","","","","","","","","feedback"
"","","","","","psychophysics","37","105753","0.0-7.0-0.0-0.13","815","","j","","","","","","","","","","","","","key","j","4.1620084925689955","768","428","j","true","3_Stimuli/S_ambi40.png","他人","Image","Word","1000","1150","他人","Match","Practice",""
"","","","","","html-keyboard-response","38","106057","0.0-7.0-0.0-1.13","null","<span style='color:GreenYellow; font-size: 70px;'>正确! </span>","null","","","","","","","","","","","","","","","","","","","","","","","","","","","","","feedback"
"","","","","","psychophysics","39","107759","0.0-7.0-0.0-0.14","550","","j","","","","","","","","","","","","","key","j","4.1657916666666575","768","428","f","false","3_Stimuli/T_ambi40.png","朋友","Image","Word","1000","1150","自我","Mismatch","Practice",""
"","","","","","html-keyboard-response","40","108070","0.0-7.0-0.0-1.14","null","<span style='color:red; font-size: 70px;'>错误! </span>","null","","","","","","","","","","","","","","","","","","","","","","","","","","","","","feedback"
"","","","","","psychophysics","41","109548","0.0-7.0-0.0-0.15","327","","j","","","","","","","","","","","","","key","j","4.160028328611913","768","428","f","false","3_Stimuli/S_ambi40.png","自我","Word","Image","1150","1000","他人","Mismatch","Practice",""
"","","","","","html-keyboard-response","42","109864","0.0-7.0-0.0-1.15","null","<span style='color:red; font-size: 70px;'>错误! </span>","null","","","","","","","","","","","","","","","","","","","","","","","","","","","","","feedback"
"","","","","","psychophysics","43","111739","0.0-7.0-0.0-0.16","722","","j","","","","","","","","","","","","","key","j","4.165708240534501","768","428","j","true","3_Stimuli/C_ambi40.png","朋友","Image","Word","1000","1150","朋友","Match","Practice",""
"","","","","","html-keyboard-response","44","112045","0.0-7.0-0.0-1.16","null","<span style='color:GreenYellow; font-size: 70px;'>正确! </span>","null","","","","","","","","","","","","","","","","","","","","","","","","","","","","","feedback"
"","","","","","psychophysics","45","113943","0.0-7.0-0.0-0.17","748","","f","","","","","","","","","","","","","key","f","4.162601321585895","768","428","f","true","3_Stimuli/T_ambi40.png","朋友","Word","Image","1150","1000","自我","Mismatch","Practice",""
"","","","","","html-keyboard-response","46","114244","0.0-7.0-0.0-1.17","null","<span style='color:GreenYellow; font-size: 70px;'>正确! </span>","null","","","","","","","","","","","","","","","","","","","","","","","","","","","","","feedback"
"","","","","","psychophysics","47","115889","0.0-7.0-0.0-0.18","494","","j","","","","","","","","","","","","","key","j","4.16331552162851","768","428","j","true","3_Stimuli/C_ambi40.png","朋友","Word","Image","1150","1000","朋友","Match","Practice",""
"","","","","","html-keyboard-response","48","116191","0.0-7.0-0.0-1.18","null","<span style='color:GreenYellow; font-size: 70px;'>正确! </span>","null","","","","","","","","","","","","","","","","","","","","","","","","","","","","","feedback"
"","","","","","psychophysics","49","117727","0.0-7.0-0.0-0.19","382","","j","","","","","","","","","","","","","key","j","4.166106267029961","768","428","j","true","3_Stimuli/S_ambi40.png","他人","Word","Image","1150","1000","他人","Match","Practice",""
"","","","","","html-keyboard-response","50","118034","0.0-7.0-0.0-1.19","null","<span style='color:GreenYellow; font-size: 70px;'>正确! </span>","null","","","","","","","","","","","","","","","","","","","","","","","","","","","","","feedback"
"","","","","","psychophysics","51","119659","0.0-7.0-0.0-0.20","474","","j","","","","","","","","","","","","","key","j","4.165961139896377","768","428","j","true","3_Stimuli/C_ambi40.png","朋友","Image","Word","1000","1150","朋友","Match","Practice",""
"","","","","","html-keyboard-response","52","119965","0.0-7.0-0.0-1.20","null","<span style='color:GreenYellow; font-size: 70px;'>正确! </span>","null","","","","","","","","","","","","","","","","","","","","","","","","","","","","","feedback"
"","","","","","psychophysics","53","121911","0.0-7.0-0.0-0.21","793","","f","","","","","","","","","","","","","key","f","4.15977155172415","768","428","f","true","3_Stimuli/C_ambi40.png","自我","Image","Word","1000","1150","朋友","Mismatch","Practice",""
"","","","","","html-keyboard-response","54","122225","0.0-7.0-0.0-1.21","null","<span style='color:GreenYellow; font-size: 70px;'>正确! </span>","null","","","","","","","","","","","","","","","","","","","","","","","","","","","","","feedback"
"","","","","","psychophysics","55","124051","0.0-7.0-0.0-0.22","673","","f","","","","","","","","","","","","","key","f","4.16572540045768","768","428","f","true","3_Stimuli/C_ambi40.png","自我","Word","Image","1150","1000","朋友","Mismatch","Practice",""
"","","","","","html-keyboard-response","56","124361","0.0-7.0-0.0-1.22","null","<span style='color:GreenYellow; font-size: 70px;'>正确! </span>","null","","","","","","","","","","","","","","","","","","","","","","","","","","","","","feedback"
"","","","","","psychophysics","57","126020","0.0-7.0-0.0-0.23","506","","j","","","","","","","","","","","","","key","j","4.161714646464658","768","428","j","true","3_Stimuli/C_ambi40.png","朋友","Word","Image","1150","1000","朋友","Match","Practice",""
"","","","","","html-keyboard-response","58","126329","0.0-7.0-0.0-1.23","null","<span style='color:GreenYellow; font-size: 70px;'>正确! </span>","null","","","","","","","","","","","","","","","","","","","","","","","","","","","","","feedback"
"","","","","","html-keyboard-response","59","129195","0.0-8.0","2863","<style>.context{color:white; font-size: 35px; line-height:40px}</style>                          <div><p class='context'>您正确回答了79% 的试次。</p><p class='context'>您的平均反应时为739毫秒。</p><p class='context'>恭喜您完成练习。按任意键进入正式实验。</p><p class='footer' style='font-size: 35px; line-height:40px;'>请在进入正式实验实验之前将您的<span style='color: lightgreen;'>食指</span>放在电脑键盘的相应键位上进行按键。</p>"," ","","","","","","","","","","","","","","","","","","","","","","","","","","","","",""
"","","","","","psychophysics","60","130747","0.0-9.0-0.0-0.0-0.0-0.0","400","","j","","","","","","","","","","","","","key","j","4.163630727762829","768","428","f","false","3_Stimuli/C_ambi40.png","自我","Word","Image","1150","1000","朋友","Mismatch","Formal",""
"","","","","","psychophysics","61","132651","0.0-9.0-0.0-0.0-0.0-0.1","750","","f","","","","","","","","","","","","","key","f","4.166090109890102","768","428","f","true","3_Stimuli/S_ambi40.png","朋友","Image","Word","1000","1150","他人","Mismatch","Formal",""
"","","","","","psychophysics","62","134647","0.0-9.0-0.0-0.0-0.0-0.2","846","","j","","","","","","","","","","","","","key","j","4.16609205020919","768","428","j","true","3_Stimuli/S_ambi40.png","他人","Image","Word","1000","1150","他人","Match","Formal",""
"","","","","","psychophysics","63","136364","0.0-9.0-0.0-0.0-0.0-0.3","564","","j","","","","","","","","","","","","","key","j","4.166097323600981","768","428","j","true","3_Stimuli/T_ambi40.png","自我","Image","Word","1000","1150","自我","Match","Formal",""
"","","","","","psychophysics","64","138055","0.0-9.0-0.0-0.0-0.0-0.4","538","","j","","","","","","","","","","","","","key","j","4.166190123456792","768","428","j","true","3_Stimuli/T_ambi40.png","自我","Word","Image","1150","1000","自我","Match","Formal",""
"","","","","","psychophysics","65","139799","0.0-9.0-0.0-0.0-0.0-0.5","591","","j","","","","","","","","","","","","","key","j","4.166182254196666","768","428","j","true","3_Stimuli/T_ambi40.png","自我","Image","Word","1000","1150","自我","Match","Formal",""
"","","","","","psychophysics","66","141679","0.0-9.0-0.0-0.0-0.0-0.6","729","","f","","","","","","","","","","","","","key","f","4.166140000000014","768","428","f","true","3_Stimuli/S_ambi40.png","自我","Word","Image","1150","1000","他人","Mismatch","Formal",""
"","","","","","psychophysics","67","143419","0.0-9.0-0.0-0.0-0.0-0.7","586","","j","","","","","","","","","","","","","key","j","4.166201923076887","768","428","j","true","3_Stimuli/T_ambi40.png","自我","Word","Image","1150","1000","自我","Match","Formal",""
"","","","","","psychophysics","68","145463","0.0-9.0-0.0-0.0-0.0-0.8","893","","f","","","","","","","","","","","","","key","f","4.166193877551016","768","428","j","false","3_Stimuli/C_ambi40.png","朋友","Image","Word","1000","1150","朋友","Match","Formal",""
"","","","","","psychophysics","69","147252","0.0-9.0-0.0-0.0-0.0-0.9","637","","j","","","","","","","","","","","","","key","j","4.166058411214962","768","428","j","true","3_Stimuli/C_ambi40.png","朋友","Image","Word","1000","1150","朋友","Match","Formal",""
"","","","","","psychophysics","70","148943","0.0-9.0-0.0-0.0-0.0-0.10","540","","j","","","","","","","","","","","","","key","j","4.16595061728393","768","428","f","false","3_Stimuli/T_ambi40.png","朋友","Word","Image","1150","1000","自我","Mismatch","Formal",""
"","","","","","psychophysics","71","150622","0.0-9.0-0.0-0.0-0.0-0.11","528","","j","","","","","","","","","","","","","key","j","4.166049751243801","768","428","f","false","3_Stimuli/C_ambi40.png","他人","Word","Image","1150","1000","朋友","Mismatch","Formal",""
"","","","","","psychophysics","72","152391","0.0-9.0-0.0-0.0-0.0-0.12","618","","j","","","","","","","","","","","","","key","j","4.166075650118203","768","428","f","false","3_Stimuli/C_ambi40.png","他人","Image","Word","1000","1150","朋友","Mismatch","Formal",""
"","","","","","psychophysics","73","154022","0.0-9.0-0.0-0.0-0.0-0.13","479","","f","","","","","","","","","","","","","key","f","4.166123076923078","768","428","f","true","3_Stimuli/T_ambi40.png","他人","Image","Word","1000","1150","自我","Mismatch","Formal",""
"","","","","","psychophysics","74","156342","0.0-9.0-0.0-0.0-0.0-0.14","1169","","f","","","","","","","","","","","","","key","f","4.16629729729732","768","428","f","true","3_Stimuli/S_ambi40.png","自我","Image","Word","1000","1150","他人","Mismatch","Formal",""
"","","","","","psychophysics","75","158143","0.0-9.0-0.0-0.0-0.0-0.15","651","","f","","","","","","","","","","","","","key","f","4.16621577726217","768","428","j","false","3_Stimuli/S_ambi40.png","他人","Word","Image","1150","1000","他人","Match","Formal",""
"","","","","","psychophysics","76","159954","0.0-9.0-0.0-0.0-0.0-0.16","658","","j","","","","","","","","","","","","","key","j","4.1658729792147895","768","428","j","true","3_Stimuli/C_ambi40.png","朋友","Word","Image","1150","1000","朋友","Match","Formal",""
"","","","","","psychophysics","77","161526","0.0-9.0-0.0-0.0-0.0-0.17","421","","j","","","","","","","","","","","","","key","j","4.199600536193032","768","428","f","false","3_Stimuli/C_ambi40.png","自我","Image","Word","1000","1150","朋友","Mismatch","Formal",""
"","","","","","psychophysics","78","163482","0.0-9.0-0.0-0.0-0.0-0.18","804","","f","","","","","","","","","","","","","key","f","4.166085470085414","768","428","j","false","3_Stimuli/S_ambi40.png","他人","Word","Image","1150","1000","他人","Match","Formal",""
"","","","","","psychophysics","79","165318","0.0-9.0-0.0-0.0-0.0-0.19","685","","f","","","","","","","","","","","","","key","f","4.1659840546697","768","428","f","true","3_Stimuli/S_ambi40.png","朋友","Word","Image","1150","1000","他人","Mismatch","Formal",""
"","","","","","psychophysics","80","167374","0.0-9.0-0.0-0.0-0.0-0.20","903","","f","","","","","","","","","","","","","key","f","4.166199186991848","768","428","f","true","3_Stimuli/T_ambi40.png","他人","Word","Image","1150","1000","自我","Mismatch","Formal",""
"","","","","","psychophysics","81","169387","0.0-9.0-0.0-0.0-0.0-0.21","863","","f","","","","","","","","","","","","","key","f","4.166203742203718","768","428","j","false","3_Stimuli/S_ambi40.png","他人","Image","Word","1000","1150","他人","Match","Formal",""
"","","","","","psychophysics","82","171366","0.0-9.0-0.0-0.0-0.0-0.22","825","","j","","","","","","","","","","","","","key","j","4.166078059071771","768","428","f","false","3_Stimuli/T_ambi40.png","朋友","Image","Word","1000","1150","自我","Mismatch","Formal",""
"","","","","","psychophysics","83","173014","0.0-9.0-0.0-0.0-0.0-0.23","497","","j","","","","","","","","","","","","","key","j","4.166058375634508","768","428","j","true","3_Stimuli/C_ambi40.png","朋友","Word","Image","1150","1000","朋友","Match","Formal",""
"","","","","","psychophysics","84","174718","0.0-9.0-0.0-0.0-0.0-0.24","552","","j","","","","","","","","","","","","","key","j","4.166257985257952","768","428","j","true","3_Stimuli/T_ambi40.png","自我","Image","Word","1000","1150","自我","Match","Formal",""
"","","","","","psychophysics","85","176617","0.0-9.0-0.0-0.0-0.0-0.25","748","","f","","","","","","","","","","","","","key","f","4.166243956043899","768","428","j","false","3_Stimuli/C_ambi40.png","朋友","Image","Word","1000","1150","朋友","Match","Formal",""
"","","","","","psychophysics","86","178470","0.0-9.0-0.0-0.0-0.0-0.26","701","","j","","","","","","","","","","","","","key","j","4.16621621621619","768","428","f","false","3_Stimuli/T_ambi40.png","他人","Word","Image","1150","1000","自我","Mismatch","Formal",""
"","","","","","psychophysics","87","180368","0.0-9.0-0.0-0.0-0.0-0.27","745","","f","","","","","","","","","","","","","key","f","4.166198237885458","768","428","f","true","3_Stimuli/T_ambi40.png","朋友","Word","Image","1150","1000","自我","Mismatch","Formal",""
"","","","","","psychophysics","88","182211","0.0-9.0-0.0-0.0-0.0-0.28","693","","f","","","","","","","","","","","","","key","f","4.166054421768731","768","428","f","true","3_Stimuli/C_ambi40.png","自我","Image","Word","1000","1150","朋友","Mismatch","Formal",""
"","","","","","psychophysics","89","184302","0.0-9.0-0.0-0.0-0.0-0.29","938","","f","","","","","","","","","","","","","key","f","4.166069860279443","768","428","j","false","3_Stimuli/C_ambi40.png","朋友","Word","Image","1150","1000","朋友","Match","Formal",""
"","","","","","psychophysics","90","186070","0.0-9.0-0.0-0.0-0.0-0.30","614","","j","","","","","","","","","","","","","key","j","4.166248226950295","768","428","j","true","3_Stimuli/C_ambi40.png","朋友","Word","Image","1150","1000","朋友","Match","Formal",""
"","","","","","psychophysics","91","187871","0.0-9.0-0.0-0.0-0.0-0.31","649","","f","","","","","","","","","","","","","key","f","4.16608584686778","768","428","f","true","3_Stimuli/T_ambi40.png","朋友","Image","Word","1000","1150","自我","Mismatch","Formal",""
"","","","","","psychophysics","92","189598","0.0-9.0-0.0-0.0-0.0-0.32","577","","j","","","","","","","","","","","","","key","j","4.166065375302644","768","428","j","true","3_Stimuli/T_ambi40.png","自我","Word","Image","1150","1000","自我","Match","Formal",""
"","","","","","psychophysics","93","191459","0.0-9.0-0.0-0.0-0.0-0.33","709","","f","","","","","","","","","","","","","key","f","4.166197309417065","768","428","j","false","3_Stimuli/T_ambi40.png","自我","Image","Word","1000","1150","自我","Match","Formal",""
"","","","","","psychophysics","94","193470","0.0-9.0-0.0-0.0-0.0-0.34","859","","f","","","","","","","","","","","","","key","f","4.166222453222471","768","428","f","true","3_Stimuli/S_ambi40.png","朋友","Image","Word","1000","1150","他人","Mismatch","Formal",""
"","","","","","psychophysics","95","195394","0.0-9.0-0.0-0.0-0.0-0.35","773","","j","","","","","","","","","","","","","key","j","4.166104347826078","768","428","j","true","3_Stimuli/C_ambi40.png","朋友","Image","Word","1000","1150","朋友","Match","Formal",""
"","","","","","psychophysics","96","197187","0.0-9.0-0.0-0.0-0.0-0.36","641","","f","","","","","","","","","","","","","key","f","4.16607692307693","768","428","f","true","3_Stimuli/S_ambi40.png","自我","Word","Image","1150","1000","他人","Mismatch","Formal",""
"","","","","","psychophysics","97","198907","0.0-9.0-0.0-0.0-0.0-0.37","569","","j","","","","","","","","","","","","","key","j","4.166128953771313","768","428","j","true","3_Stimuli/S_ambi40.png","他人","Word","Image","1150","1000","他人","Match","Formal",""
"","","","","","psychophysics","98","200962","0.0-9.0-0.0-0.0-0.0-0.38","904","","f","","","","","","","","","","","","","key","f","4.166158859470474","768","428","f","true","3_Stimuli/C_ambi40.png","他人","Image","Word","1000","1150","朋友","Mismatch","Formal",""
"","","","","","psychophysics","99","202787","0.0-9.0-0.0-0.0-0.0-0.39","671","","f","","","","","","","","","","","","","key","f","4.166276887871855","768","428","f","true","3_Stimuli/S_ambi40.png","朋友","Word","Image","1150","1000","他人","Mismatch","Formal",""
"","","","","","psychophysics","100","204617","0.0-9.0-0.0-0.0-0.0-0.40","677","","f","","","","","","","","","","","","","key","f","4.166189497716889","768","428","f","true","3_Stimuli/C_ambi40.png","自我","Word","Image","1150","1000","朋友","Mismatch","Formal",""
"","","","","","psychophysics","101","206454","0.0-9.0-0.0-0.0-0.0-0.41","685","","f","","","","","","","","","","","","","key","f","4.166068181818198","768","428","f","true","3_Stimuli/S_ambi40.png","自我","Image","Word","1000","1150","他人","Mismatch","Formal",""
"","","","","","psychophysics","102","208313","0.0-9.0-0.0-0.0-0.0-0.42","706","","j","","","","","","","","","","","","","key","j","4.166161797752832","768","428","j","true","3_Stimuli/S_ambi40.png","他人","Image","Word","1000","1150","他人","Match","Formal",""
"","","","","","psychophysics","103","210350","0.0-9.0-0.0-0.0-0.0-0.43","885","","f","","","","","","","","","","","","","key","f","4.166229508196712","768","428","f","true","3_Stimuli/T_ambi40.png","他人","Image","Word","1000","1150","自我","Mismatch","Formal",""
"","","","","","psychophysics","104","212350","0.0-9.0-0.0-0.0-0.0-0.44","848","","j","","","","","","","","","","","","","key","j","4.1660501043841345","768","428","j","true","3_Stimuli/T_ambi40.png","自我","Word","Image","1150","1000","自我","Match","Formal",""
"","","","","","psychophysics","105","214351","0.0-9.0-0.0-0.0-0.0-0.45","849","","f","","","","","","","","","","","","","key","f","4.164027139874715","768","428","f","true","3_Stimuli/C_ambi40.png","他人","Word","Image","1150","1000","朋友","Mismatch","Formal",""
"","","","","","psychophysics","106","216418","0.0-9.0-0.0-0.0-0.0-0.46","915","","j","","","","","","","","","","","","","key","j","4.166066801619456","768","428","j","true","3_Stimuli/S_ambi40.png","他人","Word","Image","1150","1000","他人","Match","Formal",""
"","","","","","psychophysics","107","218266","0.0-9.0-0.0-0.0-0.0-0.47","694","","f","","","","","","","","","","","","","key","f","4.166309954751111","768","428","j","false","3_Stimuli/S_ambi40.png","他人","Image","Word","1000","1150","他人","Match","Formal",""
"","","","","","psychophysics","108","219958","0.0-9.0-0.0-0.0-0.0-0.48","541","","j","","","","","","","","","","","","","key","j","4.166034567901249","768","428","j","true","3_Stimuli/T_ambi40.png","自我","Image","Word","1000","1150","自我","Match","Formal",""
"","","","","","psychophysics","109","222134","0.0-9.0-0.0-0.0-0.0-0.49","1025","","f","","","","","","","","","","","","","key","f","4.198234042553179","768","428","j","false","3_Stimuli/S_ambi40.png","他人","Image","Word","1000","1150","他人","Match","Formal",""
"","","","","","psychophysics","110","224262","0.0-9.0-0.0-0.0-0.0-0.50","976","","f","","","","","","","","","","","","","key","f","4.166155206286844","768","428","f","true","3_Stimuli/S_ambi40.png","自我","Image","Word","1000","1150","他人","Mismatch","Formal",""
"","","","","","psychophysics","111","226059","0.0-9.0-0.0-0.0-0.0-0.51","646","","f","","","","","","","","","","","","","key","f","4.1660394431555074","768","428","f","true","3_Stimuli/T_ambi40.png","朋友","Image","Word","1000","1150","自我","Mismatch","Formal",""
"","","","","","psychophysics","112","228162","0.0-9.0-0.0-0.0-0.0-0.52","949","","f","","","","","","","","","","","","","key","f","4.166202783300211","768","428","f","true","3_Stimuli/C_ambi40.png","他人","Word","Image","1150","1000","朋友","Mismatch","Formal",""
"","","","","","psychophysics","113","229934","0.0-9.0-0.0-0.0-0.0-0.53","622","","j","","","","","","","","","","","","","key","j","4.166132075471704","768","428","j","true","3_Stimuli/S_ambi40.png","他人","Word","Image","1150","1000","他人","Match","Formal",""
"","","","","","psychophysics","114","231854","0.0-9.0-0.0-0.0-0.0-0.54","768","","f","","","","","","","","","","","","","key","f","4.1660782608695826","768","428","f","true","3_Stimuli/S_ambi40.png","朋友","Image","Word","1000","1150","他人","Mismatch","Formal",""
"","","","","","psychophysics","115","233962","0.0-9.0-0.0-0.0-0.0-0.55","954","","f","","","","","","","","","","","","","key","f","4.166079207920783","768","428","f","true","3_Stimuli/T_ambi40.png","他人","Image","Word","1000","1150","自我","Mismatch","Formal",""
"","","","","","psychophysics","116","236143","0.0-9.0-0.0-0.0-0.0-0.56","1028","","f","","","","","","","","","","","","","key","f","4.166201149425255","768","428","f","true","3_Stimuli/T_ambi40.png","朋友","Word","Image","1150","1000","自我","Mismatch","Formal",""
"","","","","","psychophysics","117","238010","0.0-9.0-0.0-0.0-0.0-0.57","715","","f","","","","","","","","","","","","","key","f","4.166062780269022","768","428","j","false","3_Stimuli/C_ambi40.png","朋友","Image","Word","1000","1150","朋友","Match","Formal",""
"","","","","","psychophysics","118","239770","0.0-9.0-0.0-0.0-0.0-0.58","609","","j","","","","","","","","","","","","","key","j","4.166275534441824","768","428","j","true","3_Stimuli/C_ambi40.png","朋友","Word","Image","1150","1000","朋友","Match","Formal",""
"","","","","","psychophysics","119","241658","0.0-9.0-0.0-0.0-0.0-0.59","736","","j","","","","","","","","","","","","","key","j","4.166325221238946","768","428","j","true","3_Stimuli/T_ambi40.png","自我","Image","Word","1000","1150","自我","Match","Formal",""
"","","","","","psychophysics","120","243529","0.0-9.0-0.0-0.0-0.0-0.60","719","","j","","","","","","","","","","","","","key","j","4.166227678571431","768","428","f","false","3_Stimuli/C_ambi40.png","自我","Image","Word","1000","1150","朋友","Mismatch","Formal",""
"","","","","","psychophysics","121","245610","0.0-9.0-0.0-0.0-0.0-0.61","929","","j","","","","","","","","","","","","","key","j","4.166114457831337","768","428","j","true","3_Stimuli/C_ambi40.png","朋友","Image","Word","1000","1150","朋友","Match","Formal",""
"","","","","","psychophysics","122","247736","0.0-9.0-0.0-0.0-0.0-0.62","972","","f","","","","","","","","","","","","","key","f","4.166133595284883","768","428","f","true","3_Stimuli/S_ambi40.png","自我","Word","Image","1150","1000","他人","Mismatch","Formal",""
"","","","","","psychophysics","123","249811","0.0-9.0-0.0-0.0-0.0-0.63","925","","f","","","","","","","","","","","","","key","f","4.1660684104627626","768","428","j","false","3_Stimuli/S_ambi40.png","他人","Image","Word","1000","1150","他人","Match","Formal",""
"","","","","","psychophysics","124","251598","0.0-9.0-0.0-0.0-0.0-0.64","633","","j","","","","","","","","","","","","","key","j","4.166151869158838","768","428","j","true","3_Stimuli/T_ambi40.png","自我","Word","Image","1150","1000","自我","Match","Formal",""
"","","","","","psychophysics","125","253554","0.0-9.0-0.0-0.0-0.0-0.65","803","","j","","","","","","","","","","","","","key","j","4.166017094017086","768","428","f","false","3_Stimuli/S_ambi40.png","朋友","Word","Image","1150","1000","他人","Mismatch","Formal",""
"","","","","","psychophysics","126","255702","0.0-9.0-0.0-0.0-0.0-0.66","997","","j","","","","","","","","","","","","","key","j","4.166169260700375","768","428","f","false","3_Stimuli/C_ambi40.png","自我","Word","Image","1150","1000","朋友","Mismatch","Formal",""
"","","","","","psychophysics","127","257627","0.0-9.0-0.0-0.0-0.0-0.67","773","","j","","","","","","","","","","","","","key","j","4.166143167028209","768","428","j","true","3_Stimuli/C_ambi40.png","朋友","Word","Image","1150","1000","朋友","Match","Formal",""
"","","","","","psychophysics","128","259828","0.0-9.0-0.0-0.0-0.0-0.68","1049","","j","","","","","","","","","","","","","key","j","4.166240986717261","768","428","f","false","3_Stimuli/T_ambi40.png","他人","Word","Image","1150","1000","自我","Mismatch","Formal",""
"","","","","","psychophysics","129","261786","0.0-9.0-0.0-0.0-0.0-0.69","808","","j","","","","","","","","","","","","","key","j","4.166004273504217","768","428","j","true","3_Stimuli/S_ambi40.png","他人","Word","Image","1150","1000","他人","Match","Formal",""
"","","","","","psychophysics","130","263867","0.0-9.0-0.0-0.0-0.0-0.70","930","","f","","","","","","","","","","","","","key","f","4.166090361445761","768","428","f","true","3_Stimuli/C_ambi40.png","他人","Image","Word","1000","1150","朋友","Mismatch","Formal",""
"","","","","","psychophysics","131","265515","0.0-9.0-0.0-0.0-0.0-0.71","496","","j","","","","","","","","","","","","","key","j","4.166266497461979","768","428","j","true","3_Stimuli/T_ambi40.png","自我","Word","Image","1150","1000","自我","Match","Formal",""
"","","","","","psychophysics","132","267422","0.0-9.0-0.0-0.0-0.0-0.72","756","","j","","","","","","","","","","","","","key","j","4.166146929824511","768","428","j","true","3_Stimuli/C_ambi40.png","朋友","Image","Word","1000","1150","朋友","Match","Formal",""
"","","","","","psychophysics","133","269194","0.0-9.0-0.0-0.0-0.0-0.73","621","","f","","","","","","","","","","","","","key","f","4.16636084905663","768","428","j","false","3_Stimuli/C_ambi40.png","朋友","Word","Image","1150","1000","朋友","Match","Formal",""
"","","","","","psychophysics","134","270846","0.0-9.0-0.0-0.0-0.0-0.74","499","","j","","","","","","","","","","","","","key","j","4.165896202531596","768","428","j","true","3_Stimuli/T_ambi40.png","自我","Word","Image","1150","1000","自我","Match","Formal",""
"","","","","","psychophysics","135","273149","0.0-9.0-0.0-0.0-0.0-0.75","1152","","f","","","","","","","","","","","","","key","f","4.166117967332155","768","428","f","true","3_Stimuli/T_ambi40.png","他人","Image","Word","1000","1150","自我","Mismatch","Formal",""
"","","","","","psychophysics","136","275129","0.0-9.0-0.0-0.0-0.0-0.76","828","","j","","","","","","","","","","","","","key","j","4.166143459915567","768","428","j","true","3_Stimuli/T_ambi40.png","自我","Image","Word","1000","1150","自我","Match","Formal",""
"","","","","","psychophysics","137","276982","0.0-9.0-0.0-0.0-0.0-0.77","701","","j","","","","","","","","","","","","","key","j","4.1661670428893105","768","428","j","true","3_Stimuli/S_ambi40.png","他人","Image","Word","1000","1150","他人","Match","Formal",""
"","","","","","psychophysics","138","278957","0.0-9.0-0.0-0.0-0.0-0.78","823","","j","","","","","","","","","","","","","key","j","4.166059196617402","768","428","f","false","3_Stimuli/S_ambi40.png","自我","Image","Word","1000","1150","他人","Mismatch","Formal",""
"","","","","","psychophysics","139","280686","0.0-9.0-0.0-0.0-0.0-0.79","578","","j","","","","","","","","","","","","","key","j","4.176162227602917","768","428","j","true","3_Stimuli/S_ambi40.png","他人","Image","Word","1000","1150","他人","Match","Formal",""
"","","","","","psychophysics","140","282890","0.0-9.0-0.0-0.0-0.0-0.80","1052","","f","","","","","","","","","","","","","key","f","4.165914448669216","768","428","f","true","3_Stimuli/S_ambi40.png","朋友","Word","Image","1150","1000","他人","Mismatch","Formal",""
"","","","","","psychophysics","141","284661","0.0-9.0-0.0-0.0-0.0-0.81","620","","f","","","","","","","","","","","","","key","f","4.1661418439716105","768","428","f","true","3_Stimuli/S_ambi40.png","自我","Word","Image","1150","1000","他人","Mismatch","Formal",""
"","","","","","psychophysics","142","286626","0.0-9.0-0.0-0.0-0.0-0.82","814","","j","","","","","","","","","","","","","key","j","4.166222929936362","768","428","j","true","3_Stimuli/S_ambi40.png","他人","Word","Image","1150","1000","他人","Match","Formal",""
"","","","","","psychophysics","143","288717","0.0-9.0-0.0-0.0-0.0-0.83","939","","f","","","","","","","","","","","","","key","f","4.166239520958127","768","428","f","true","3_Stimuli/T_ambi40.png","朋友","Image","Word","1000","1150","自我","Mismatch","Formal",""
"","","","","","psychophysics","144","290713","0.0-9.0-0.0-0.0-0.0-0.84","843","","f","","","","","","","","","","","","","key","f","4.166196652719747","768","428","f","true","3_Stimuli/S_ambi40.png","朋友","Image","Word","1000","1150","他人","Mismatch","Formal",""
"","","","","","psychophysics","145","292697","0.0-9.0-0.0-0.0-0.0-0.85","831","","j","","","","","","","","","","","","","key","j","4.166084210526345","768","428","j","true","3_Stimuli/C_ambi40.png","朋友","Word","Image","1150","1000","朋友","Match","Formal",""
"","","","","","psychophysics","146","294482","0.0-9.0-0.0-0.0-0.0-0.86","634","","f","","","","","","","","","","","","","key","f","4.16593442622949","768","428","f","true","3_Stimuli/C_ambi40.png","自我","Word","Image","1150","1000","朋友","Mismatch","Formal",""
"","","","","","psychophysics","147","296270","0.0-9.0-0.0-0.0-0.0-0.87","634","","f","","","","","","","","","","","","","key","f","4.166072429906605","768","428","j","false","3_Stimuli/C_ambi40.png","朋友","Image","Word","1000","1150","朋友","Match","Formal",""
"","","","","","psychophysics","148","298129","0.0-9.0-0.0-0.0-0.0-0.88","706","","f","","","","","","","","","","","","","key","f","4.166215730337112","768","428","f","true","3_Stimuli/C_ambi40.png","他人","Image","Word","1000","1150","朋友","Mismatch","Formal",""
"","","","","","psychophysics","149","299870","0.0-9.0-0.0-0.0-0.0-0.89","589","","j","","","","","","","","","","","","","key","j","4.166055155875289","768","428","j","true","3_Stimuli/T_ambi40.png","自我","Word","Image","1150","1000","自我","Match","Formal",""
"","","","","","psychophysics","150","301574","0.0-9.0-0.0-0.0-0.0-0.90","551","","j","","","","","","","","","","","","","key","j","4.166000000000085","768","428","f","false","3_Stimuli/T_ambi40.png","朋友","Word","Image","1150","1000","自我","Mismatch","Formal",""
"","","","","","psychophysics","151","303537","0.0-9.0-0.0-0.0-0.0-0.91","810","","j","","","","","","","","","","","","","key","j","4.166210638297885","768","428","j","true","3_Stimuli/T_ambi40.png","自我","Image","Word","1000","1150","自我","Match","Formal",""
"","","","","","psychophysics","152","305295","0.0-9.0-0.0-0.0-0.0-0.92","606","","j","","","","","","","","","","","","","key","j","4.166057007125969","768","428","f","false","3_Stimuli/T_ambi40.png","他人","Word","Image","1150","1000","自我","Mismatch","Formal",""
"","","","","","psychophysics","153","307321","0.0-9.0-0.0-0.0-0.0-0.93","874","","j","","","","","","","","","","","","","key","j","4.166224742268054","768","428","j","true","3_Stimuli/S_ambi40.png","他人","Word","Image","1150","1000","他人","Match","Formal",""
"","","","","","psychophysics","154","309241","0.0-9.0-0.0-0.0-0.0-0.94","769","","f","","","","","","","","","","","","","key","f","4.166106753812673","768","428","f","true","3_Stimuli/C_ambi40.png","他人","Word","Image","1150","1000","朋友","Mismatch","Formal",""
"","","","","","psychophysics","155","311493","0.0-9.0-0.0-0.0-0.0-0.95","1101","","f","","","","","","","","","","","","","key","f","4.166116883116796","768","428","f","true","3_Stimuli/C_ambi40.png","自我","Image","Word","1000","1150","朋友","Mismatch","Formal",""
"","","","","","psychophysics","156","313549","0.0-9.0-0.0-0.0-0.0-0.96","903","","f","","","","","","","","","","","","","key","f","4.166211382113847","768","428","f","true","3_Stimuli/S_ambi40.png","自我","Image","Word","1000","1150","他人","Mismatch","Formal",""
"","","","","","psychophysics","157","315350","0.0-9.0-0.0-0.0-0.0-0.97","650","","j","","","","","","","","","","","","","key","j","4.166074245939763","768","428","j","true","3_Stimuli/T_ambi40.png","自我","Image","Word","1000","1150","自我","Match","Formal",""
"","","","","","psychophysics","158","317222","0.0-9.0-0.0-0.0-0.0-0.98","718","","j","","","","","","","","","","","","","key","j","4.166245535714292","768","428","j","true","3_Stimuli/T_ambi40.png","自我","Image","Word","1000","1150","自我","Match","Formal",""
"","","","","","psychophysics","159","319025","0.0-9.0-0.0-0.0-0.0-0.99","651","","f","","","","","","","","","","","","","key","f","4.165826388888861","768","428","f","true","3_Stimuli/T_ambi40.png","朋友","Word","Image","1150","1000","自我","Mismatch","Formal",""
"","","","","","psychophysics","160","320785","0.0-9.0-0.0-0.0-0.0-0.100","607","","j","","","","","","","","","","","","","key","j","4.166444180522644","768","428","f","false","3_Stimuli/T_ambi40.png","朋友","Image","Word","1000","1150","自我","Mismatch","Formal",""
"","","","","","psychophysics","161","322941","0.0-9.0-0.0-0.0-0.0-0.101","1005","","f","","","","","","","","","","","","","key","f","4.166007736943909","768","428","f","true","3_Stimuli/S_ambi40.png","自我","Word","Image","1150","1000","他人","Mismatch","Formal",""
"","","","","","psychophysics","162","325101","0.0-9.0-0.0-0.0-0.0-0.102","1006","","j","","","","","","","","","","","","","key","j","4.166373307543547","768","428","j","true","3_Stimuli/C_ambi40.png","朋友","Word","Image","1150","1000","朋友","Match","Formal",""
"","","","","","psychophysics","163","326922","0.0-9.0-0.0-0.0-0.0-0.103","670","","f","","","","","","","","","","","","","key","f","4.166034482758567","768","428","f","true","3_Stimuli/C_ambi40.png","自我","Word","Image","1150","1000","朋友","Mismatch","Formal",""
"","","","","","psychophysics","164","328657","0.0-9.0-0.0-0.0-0.0-0.104","584","","f","","","","","","","","","","","","","key","f","4.166002409638562","768","428","f","true","3_Stimuli/S_ambi40.png","朋友","Word","Image","1150","1000","他人","Mismatch","Formal",""
"","","","","","psychophysics","165","330437","0.0-9.0-0.0-0.0-0.0-0.105","627","","j","","","","","","","","","","","","","key","j","4.166246478873231","768","428","j","true","3_Stimuli/S_ambi40.png","他人","Word","Image","1150","1000","他人","Match","Formal",""
"","","","","","psychophysics","166","332306","0.0-9.0-0.0-0.0-0.0-0.106","717","","j","","","","","","","","","","","","","key","j","4.1660313199104175","768","428","f","false","3_Stimuli/C_ambi40.png","他人","Word","Image","1150","1000","朋友","Mismatch","Formal",""
"","","","","","psychophysics","167","334141","0.0-9.0-0.0-0.0-0.0-0.107","685","","f","","","","","","","","","","","","","key","f","4.166719817767659","768","428","f","true","3_Stimuli/S_ambi40.png","朋友","Image","Word","1000","1150","他人","Mismatch","Formal",""
"","","","","","psychophysics","168","335921","0.0-9.0-0.0-0.0-0.0-0.108","628","","j","","","","","","","","","","","","","key","j","4.166542253521093","768","428","j","true","3_Stimuli/S_ambi40.png","他人","Word","Image","1150","1000","他人","Match","Formal",""
"","","","","","psychophysics","169","337619","0.0-9.0-0.0-0.0-0.0-0.109","547","","j","","","","","","","","","","","","","key","j","4.166182266009783","768","428","j","true","3_Stimuli/T_ambi40.png","自我","Word","Image","1150","1000","自我","Match","Formal",""
"","","","","","psychophysics","170","339549","0.0-9.0-0.0-0.0-0.0-0.110","777","","f","","","","","","","","","","","","","key","f","4.1659090909090155","768","428","f","true","3_Stimuli/C_ambi40.png","自我","Image","Word","1000","1150","朋友","Mismatch","Formal",""
"","","","","","psychophysics","171","341509","0.0-9.0-0.0-0.0-0.0-0.111","808","","j","","","","","","","","","","","","","key","j","4.192873390557848","768","428","j","true","3_Stimuli/S_ambi40.png","他人","Image","Word","1000","1150","他人","Match","Formal",""
"","","","","","psychophysics","172","343378","0.0-9.0-0.0-0.0-0.0-0.112","715","","f","","","","","","","","","","","","","key","f","4.166646532438564","768","428","f","true","3_Stimuli/T_ambi40.png","他人","Word","Image","1150","1000","自我","Mismatch","Formal",""
"","","","","","psychophysics","173","345053","0.0-9.0-0.0-0.0-0.0-0.113","525","","j","","","","","","","","","","","","","key","j","4.166117206982428","768","428","j","true","3_Stimuli/T_ambi40.png","自我","Word","Image","1150","1000","自我","Match","Formal",""
"","","","","","psychophysics","174","347141","0.0-9.0-0.0-0.0-0.0-0.114","937","","f","","","","","","","","","","","","","key","f","4.166020040080243","768","428","f","true","3_Stimuli/C_ambi40.png","他人","Image","Word","1000","1150","朋友","Mismatch","Formal",""
"","","","","","psychophysics","175","348955","0.0-9.0-0.0-0.0-0.0-0.115","659","","f","","","","","","","","","","","","","key","f","4.166096774193572","768","428","f","true","3_Stimuli/T_ambi40.png","他人","Image","Word","1000","1150","自我","Mismatch","Formal",""
"","","","","","psychophysics","176","350641","0.0-9.0-0.0-0.0-0.0-0.116","534","","f","","","","","","","","","","","","","key","f","4.16607920792084","768","428","j","false","3_Stimuli/S_ambi40.png","他人","Image","Word","1000","1150","他人","Match","Formal",""
"","","","","","psychophysics","177","352789","0.0-9.0-0.0-0.0-0.0-0.117","994","","f","","","","","","","","","","","","","key","f","4.166107003891081","768","428","j","false","3_Stimuli/C_ambi40.png","朋友","Image","Word","1000","1150","朋友","Match","Formal",""
"","","","","","psychophysics","178","354473","0.0-9.0-0.0-0.0-0.0-0.118","532","","j","","","","","","","","","","","","","key","j","4.166168734491352","768","428","j","true","3_Stimuli/C_ambi40.png","朋友","Word","Image","1150","1000","朋友","Match","Formal",""
"","","","","","psychophysics","179","356445","0.0-9.0-0.0-0.0-0.0-0.119","822","","f","","","","","","","","","","","","","key","f","4.166133474576227","768","428","j","false","3_Stimuli/C_ambi40.png","朋友","Image","Word","1000","1150","朋友","Match","Formal",""
"","","","","","html-keyboard-response","180","365623","0.0-9.0-0.0-0.0-1.0","9177","<style>.context{color:white; font-size: 35px; line-height:40px}</style>                        <div><p class='context'>您正确回答了73% 的试次。</p><p class='context'>您的平均反应时为745毫秒。</p><p> <div style = 'color: green'><按任意键进入休息></div></p>"," ","","","","","","","","","","","","","","","","","","","","","","","","","","","","",""
"","","","","","html-button-response","181","441439","0.0-9.0-0.0-0.0-2.0","75816","
                  <p>您当前还剩余5组实验</p>
                  <p>现在是休息时间，当您结束休息后，您可以点击 结束休息 按钮 继续</p>
                  <p>建议休息时间还剩余<span id=""iii"">60</span>秒</p>","0","","","","","","","","","","","","","","","","","","","","","","","","","","","","",""
"","","","","","psychophysics","182","443509","0.0-9.0-0.0-0.0-0.1-0.120","917","","f","","","","","","","","","","","","","key","f","4.172359026369165","768","428","f","true","3_Stimuli/T_ambi40.png","他人","Image","Word","1000","1150","自我","Mismatch","Formal",""
"","","","","","psychophysics","183","445357","0.0-9.0-0.0-0.0-0.1-0.121","697","","f","","","","","","","","","","","","","key","f","4.166244343891361","768","428","f","true","3_Stimuli/C_ambi40.png","自我","Image","Word","1000","1150","朋友","Mismatch","Formal",""
"","","","","","psychophysics","184","447064","0.0-9.0-0.0-0.0-0.1-0.122","557","","j","","","","","","","","","","","","","key","j","4.166512254901902","768","428","f","false","3_Stimuli/S_ambi40.png","朋友","Image","Word","1000","1150","他人","Mismatch","Formal",""
"","","","","","psychophysics","185","448749","0.0-9.0-0.0-0.0-0.1-0.123","534","","j","","","","","","","","","","","","","key","j","4.165960297766707","768","428","j","true","3_Stimuli/S_ambi40.png","他人","Image","Word","1000","1150","他人","Match","Formal",""
"","","","","","psychophysics","186","450420","0.0-9.0-0.0-0.0-0.1-0.124","519","","f","","","","","","","","","","","","","key","f","4.166442499999976","768","428","j","false","3_Stimuli/S_ambi40.png","他人","Word","Image","1150","1000","他人","Match","Formal",""
"","","","","","psychophysics","187","452078","0.0-9.0-0.0-0.0-0.1-0.125","505","","j","","","","","","","","","","","","","key","j","4.166000000000005","768","428","j","true","3_Stimuli/T_ambi40.png","自我","Word","Image","1150","1000","自我","Match","Formal",""
"","","","","","psychophysics","188","453861","0.0-9.0-0.0-0.0-0.1-0.126","632","","f","","","","","","","","","","","","","key","f","4.166093676815036","768","428","j","false","3_Stimuli/S_ambi40.png","他人","Word","Image","1150","1000","他人","Match","Formal",""
"","","","","","psychophysics","189","455664","0.0-9.0-0.0-0.0-0.1-0.127","651","","f","","","","","","","","","","","","","key","f","4.16633101851861","768","428","f","true","3_Stimuli/C_ambi40.png","自我","Word","Image","1150","1000","朋友","Mismatch","Formal",""
"","","","","","psychophysics","190","457557","0.0-9.0-0.0-0.0-0.1-0.128","739","","f","","","","","","","","","","","","","key","f","4.166094922737263","768","428","f","true","3_Stimuli/T_ambi40.png","他人","Word","Image","1150","1000","自我","Mismatch","Formal",""
"","","","","","psychophysics","191","459240","0.0-9.0-0.0-0.0-0.1-0.129","531","","j","","","","","","","","","","","","","key","j","4.1661836228288065","768","428","j","true","3_Stimuli/T_ambi40.png","自我","Word","Image","1150","1000","自我","Match","Formal",""
"","","","","","psychophysics","192","460896","0.0-9.0-0.0-0.0-0.1-0.130","505","","j","","","","","","","","","","","","","key","j","4.187248101265794","768","428","j","true","3_Stimuli/C_ambi40.png","朋友","Word","Image","1150","1000","朋友","Match","Formal",""
"","","","","","psychophysics","193","462650","0.0-9.0-0.0-0.0-0.1-0.131","600","","f","","","","","","","","","","","","","key","f","4.166140811455876","768","428","f","true","3_Stimuli/S_ambi40.png","自我","Word","Image","1150","1000","他人","Mismatch","Formal",""
"","","","","","psychophysics","194","464732","0.0-9.0-0.0-0.0-0.1-0.132","932","","f","","","","","","","","","","","","","key","f","4.16598393574292","768","428","f","true","3_Stimuli/T_ambi40.png","朋友","Image","Word","1000","1150","自我","Mismatch","Formal",""
"","","","","","psychophysics","195","466452","0.0-9.0-0.0-0.0-0.1-0.133","569","","j","","","","","","","","","","","","","key","j","4.16613381995138","768","428","j","true","3_Stimuli/C_ambi40.png","朋友","Image","Word","1000","1150","朋友","Match","Formal",""
"","","","","","psychophysics","196","468288","0.0-9.0-0.0-0.0-0.1-0.134","685","","f","","","","","","","","","","","","","key","f","4.166095454545575","768","428","f","true","3_Stimuli/S_ambi40.png","自我","Image","Word","1000","1150","他人","Mismatch","Formal",""
"","","","","","psychophysics","197","470012","0.0-9.0-0.0-0.0-0.1-0.135","572","","j","","","","","","","","","","","","","key","j","4.166135593220343","768","428","f","false","3_Stimuli/C_ambi40.png","他人","Image","Word","1000","1150","朋友","Mismatch","Formal",""
"","","","","","psychophysics","198","472304","0.0-9.0-0.0-0.0-0.1-0.136","1139","","f","","","","","","","","","","","","","key","f","4.166102003642991","768","428","f","true","3_Stimuli/C_ambi40.png","他人","Word","Image","1150","1000","朋友","Mismatch","Formal",""
"","","","","","psychophysics","199","474261","0.0-9.0-0.0-0.0-0.1-0.137","804","","f","","","","","","","","","","","","","key","f","4.166157782516022","768","428","j","false","3_Stimuli/C_ambi40.png","朋友","Image","Word","1000","1150","朋友","Match","Formal",""
"","","","","","psychophysics","200","476316","0.0-9.0-0.0-0.0-0.1-0.138","902","","f","","","","","","","","","","","","","key","f","4.16621341463415","768","428","f","true","3_Stimuli/S_ambi40.png","朋友","Word","Image","1150","1000","他人","Mismatch","Formal",""
"","","","","","psychophysics","201","478184","0.0-9.0-0.0-0.0-0.1-0.139","715","","f","","","","","","","","","","","","","key","f","4.166098654708557","768","428","f","true","3_Stimuli/T_ambi40.png","朋友","Word","Image","1150","1000","自我","Mismatch","Formal",""
"","","","","","psychophysics","202","479844","0.0-9.0-0.0-0.0-0.1-0.140","509","","j","","","","","","","","","","","","","key","j","4.16594723618081","768","428","j","true","3_Stimuli/T_ambi40.png","自我","Image","Word","1000","1150","自我","Match","Formal",""
"","","","","","psychophysics","203","481612","0.0-9.0-0.0-0.0-0.1-0.141","614","","j","","","","","","","","","","","","","key","j","4.166222222222166","768","428","j","true","3_Stimuli/S_ambi40.png","他人","Image","Word","1000","1150","他人","Match","Formal",""
"","","","","","psychophysics","204","483448","0.0-9.0-0.0-0.0-0.1-0.142","685","","f","","","","","","","","","","","","","key","f","4.1660613636364525","768","428","j","false","3_Stimuli/T_ambi40.png","自我","Image","Word","1000","1150","自我","Match","Formal",""
"","","","","","psychophysics","205","485102","0.0-9.0-0.0-0.0-0.1-0.143","501","","j","","","","","","","","","","","","","key","j","4.166189393939361","768","428","j","true","3_Stimuli/C_ambi40.png","朋友","Word","Image","1150","1000","朋友","Match","Formal",""
"","","","","","psychophysics","206","486948","0.0-9.0-0.0-0.0-0.1-0.144","693","","j","","","","","","","","","","","","","key","j","4.166228506787326","768","428","j","true","3_Stimuli/S_ambi40.png","他人","Image","Word","1000","1150","他人","Match","Formal",""
"","","","","","psychophysics","207","488764","0.0-9.0-0.0-0.0-0.1-0.145","664","","j","","","","","","","","","","","","","key","j","4.166172413793045","768","428","j","true","3_Stimuli/C_ambi40.png","朋友","Image","Word","1000","1150","朋友","Match","Formal",""
"","","","","","psychophysics","208","490460","0.0-9.0-0.0-0.0-0.1-0.146","543","","f","","","","","","","","","","","","","key","f","4.166125615763511","768","428","f","true","3_Stimuli/C_ambi40.png","他人","Word","Image","1150","1000","朋友","Mismatch","Formal",""
"","","","","","psychophysics","209","492077","0.0-9.0-0.0-0.0-0.1-0.147","465","","j","","","","","","","","","","","","","key","j","4.166382428940604","768","428","j","true","3_Stimuli/T_ambi40.png","自我","Word","Image","1150","1000","自我","Match","Formal",""
"","","","","","psychophysics","210","493885","0.0-9.0-0.0-0.0-0.1-0.148","656","","j","","","","","","","","","","","","","key","j","4.166090069283967","768","428","f","false","3_Stimuli/S_ambi40.png","自我","Word","Image","1150","1000","他人","Mismatch","Formal",""
"","","","","","psychophysics","211","495610","0.0-9.0-0.0-0.0-0.1-0.149","573","","j","","","","","","","","","","","","","key","j","4.166053268765031","768","428","j","true","3_Stimuli/C_ambi40.png","朋友","Word","Image","1150","1000","朋友","Match","Formal",""
"","","","","","psychophysics","212","497312","0.0-9.0-0.0-0.0-0.1-0.150","550","","j","","","","","","","","","","","","","key","j","4.166226600985108","768","428","f","false","3_Stimuli/C_ambi40.png","他人","Image","Word","1000","1150","朋友","Mismatch","Formal",""
"","","","","","psychophysics","213","499088","0.0-9.0-0.0-0.0-0.1-0.151","625","","j","","","","","","","","","","","","","key","j","4.166225882352959","768","428","f","false","3_Stimuli/T_ambi40.png","朋友","Word","Image","1150","1000","自我","Mismatch","Formal",""
"","","","","","psychophysics","214","500964","0.0-9.0-0.0-0.0-0.1-0.152","723","","f","","","","","","","","","","","","","key","f","4.166084632516672","768","428","f","true","3_Stimuli/C_ambi40.png","自我","Word","Image","1150","1000","朋友","Mismatch","Formal",""
"","","","","","psychophysics","215","502888","0.0-9.0-0.0-0.0-0.1-0.153","773","","f","","","","","","","","","","","","","key","f","4.165830802602982","768","428","f","true","3_Stimuli/S_ambi40.png","朋友","Word","Image","1150","1000","他人","Mismatch","Formal",""
"","","","","","psychophysics","216","504892","0.0-9.0-0.0-0.0-0.1-0.154","852","","f","","","","","","","","","","","","","key","f","4.166081250000086","768","428","f","true","3_Stimuli/T_ambi40.png","他人","Word","Image","1150","1000","自我","Mismatch","Formal",""
"","","","","","psychophysics","217","506597","0.0-9.0-0.0-0.0-0.1-0.155","553","","j","","","","","","","","","","","","","key","j","4.166227941176461","768","428","j","true","3_Stimuli/S_ambi40.png","他人","Word","Image","1150","1000","他人","Match","Formal",""
"","","","","","psychophysics","218","508550","0.0-9.0-0.0-0.0-0.1-0.156","802","","f","","","","","","","","","","","","","key","f","4.16584582441116","768","428","f","true","3_Stimuli/C_ambi40.png","自我","Image","Word","1000","1150","朋友","Mismatch","Formal",""
"","","","","","psychophysics","219","510508","0.0-9.0-0.0-0.0-0.1-0.157","806","","f","","","","","","","","","","","","","key","f","4.1660746268656","768","428","f","true","3_Stimuli/S_ambi40.png","自我","Image","Word","1000","1150","他人","Mismatch","Formal",""
"","","","","","psychophysics","220","512209","0.0-9.0-0.0-0.0-0.1-0.158","549","","f","","","","","","","","","","","","","key","f","4.166154791154791","768","428","j","false","3_Stimuli/S_ambi40.png","他人","Word","Image","1150","1000","他人","Match","Formal",""
"","","","","","psychophysics","221","513972","0.0-9.0-0.0-0.0-0.1-0.159","612","","j","","","","","","","","","","","","","key","j","4.16599762470311","768","428","j","true","3_Stimuli/C_ambi40.png","朋友","Image","Word","1000","1150","朋友","Match","Formal",""
"","","","","","psychophysics","222","515700","0.0-9.0-0.0-0.0-0.1-0.160","574","","j","","","","","","","","","","","","","key","j","4.166307506053263","768","428","j","true","3_Stimuli/T_ambi40.png","自我","Image","Word","1000","1150","自我","Match","Formal",""
"","","","","","psychophysics","223","517333","0.0-9.0-0.0-0.0-0.1-0.161","483","","j","","","","","","","","","","","","","key","j","4.1659102564102986","768","428","j","true","3_Stimuli/T_ambi40.png","自我","Word","Image","1150","1000","自我","Match","Formal",""
"","","","","","psychophysics","224","518949","0.0-9.0-0.0-0.0-0.1-0.162","465","","j","","","","","","","","","","","","","key","j","4.166103626942953","768","428","j","true","3_Stimuli/T_ambi40.png","自我","Image","Word","1000","1150","自我","Match","Formal",""
"","","","","","psychophysics","225","520776","0.0-9.0-0.0-0.0-0.1-0.163","676","","f","","","","","","","","","","","","","key","f","4.175604118993138","768","428","f","true","3_Stimuli/T_ambi40.png","他人","Image","Word","1000","1150","自我","Mismatch","Formal",""
"","","","","","psychophysics","226","522636","0.0-9.0-0.0-0.0-0.1-0.164","708","","j","","","","","","","","","","","","","key","j","4.1660988764044715","768","428","j","true","3_Stimuli/S_ambi40.png","他人","Image","Word","1000","1150","他人","Match","Formal",""
"","","","","","psychophysics","227","524620","0.0-9.0-0.0-0.0-0.1-0.165","833","","f","","","","","","","","","","","","","key","f","4.165997890295277","768","428","f","true","3_Stimuli/S_ambi40.png","朋友","Image","Word","1000","1150","他人","Mismatch","Formal",""
"","","","","","psychophysics","228","526340","0.0-9.0-0.0-0.0-0.1-0.166","569","","j","","","","","","","","","","","","","key","j","4.166284671532831","768","428","j","true","3_Stimuli/C_ambi40.png","朋友","Word","Image","1150","1000","朋友","Match","Formal",""
"","","","","","psychophysics","229","528294","0.0-9.0-0.0-0.0-0.1-0.167","803","","f","","","","","","","","","","","","","key","f","4.1660769230770205","768","428","f","true","3_Stimuli/T_ambi40.png","朋友","Image","Word","1000","1150","自我","Mismatch","Formal",""
"","","","","","psychophysics","230","529968","0.0-9.0-0.0-0.0-0.1-0.168","523","","j","","","","","","","","","","","","","key","j","4.166132499999949","768","428","j","true","3_Stimuli/S_ambi40.png","他人","Image","Word","1000","1150","他人","Match","Formal",""
"","","","","","psychophysics","231","531809","0.0-9.0-0.0-0.0-0.1-0.169","689","","f","","","","","","","","","","","","","key","f","4.165927437641721","768","428","f","true","3_Stimuli/S_ambi40.png","朋友","Image","Word","1000","1150","他人","Mismatch","Formal",""
"","","","","","psychophysics","232","533700","0.0-9.0-0.0-0.0-0.1-0.170","739","","f","","","","","","","","","","","","","key","f","4.166161147902759","768","428","f","true","3_Stimuli/S_ambi40.png","自我","Image","Word","1000","1150","他人","Mismatch","Formal",""
"","","","","","psychophysics","233","535592","0.0-9.0-0.0-0.0-0.1-0.171","739","","f","","","","","","","","","","","","","key","f","4.166231788079374","768","428","f","true","3_Stimuli/T_ambi40.png","他人","Word","Image","1150","1000","自我","Mismatch","Formal",""
"","","","","","psychophysics","234","537272","0.0-9.0-0.0-0.0-0.1-0.172","528","","j","","","","","","","","","","","","","key","j","4.1660323383084465","768","428","j","true","3_Stimuli/C_ambi40.png","朋友","Word","Image","1150","1000","朋友","Match","Formal",""
"","","","","","psychophysics","235","539105","0.0-9.0-0.0-0.0-0.1-0.173","682","","f","","","","","","","","","","","","","key","f","4.165970319634852","768","428","f","true","3_Stimuli/C_ambi40.png","他人","Word","Image","1150","1000","朋友","Mismatch","Formal",""
"","","","","","psychophysics","236","540984","0.0-9.0-0.0-0.0-0.1-0.174","728","","f","","","","","","","","","","","","","key","f","4.166024498886507","768","428","f","true","3_Stimuli/C_ambi40.png","自我","Image","Word","1000","1150","朋友","Mismatch","Formal",""
"","","","","","psychophysics","237","542712","0.0-9.0-0.0-0.0-0.1-0.175","577","","j","","","","","","","","","","","","","key","j","4.1661355932202015","768","428","j","true","3_Stimuli/S_ambi40.png","他人","Word","Image","1150","1000","他人","Match","Formal",""
"","","","","","psychophysics","238","544752","0.0-9.0-0.0-0.0-0.1-0.176","888","","f","","","","","","","","","","","","","key","f","4.166006134969376","768","428","f","true","3_Stimuli/T_ambi40.png","他人","Image","Word","1000","1150","自我","Mismatch","Formal",""
"","","","","","psychophysics","239","546488","0.0-9.0-0.0-0.0-0.1-0.177","582","","j","","","","","","","","","","","","","key","j","4.1660385542170495","768","428","j","true","3_Stimuli/T_ambi40.png","自我","Image","Word","1000","1150","自我","Match","Formal",""
"","","","","","psychophysics","240","548300","0.0-9.0-0.0-0.0-0.1-0.178","661","","f","","","","","","","","","","","","","key","f","4.166263279445657","768","428","f","true","3_Stimuli/S_ambi40.png","自我","Word","Image","1150","1000","他人","Mismatch","Formal",""
"","","","","","psychophysics","241","549902","0.0-9.0-0.0-0.0-0.1-0.179","451","","j","","","","","","","","","","","","","key","j","4.166187989555892","768","428","j","true","3_Stimuli/T_ambi40.png","自我","Word","Image","1150","1000","自我","Match","Formal",""
"","","","","","psychophysics","242","551784","0.0-9.0-0.0-0.0-0.1-0.180","729","","j","","","","","","","","","","","","","key","j","4.166079999999816","768","428","f","false","3_Stimuli/C_ambi40.png","自我","Word","Image","1150","1000","朋友","Mismatch","Formal",""
"","","","","","psychophysics","243","553788","0.0-9.0-0.0-0.0-0.1-0.181","850","","f","","","","","","","","","","","","","key","f","4.166083333333275","768","428","j","false","3_Stimuli/C_ambi40.png","朋友","Image","Word","1000","1150","朋友","Match","Formal",""
"","","","","","psychophysics","244","555664","0.0-9.0-0.0-0.0-0.1-0.182","722","","f","","","","","","","","","","","","","key","f","4.166211581291924","768","428","f","true","3_Stimuli/S_ambi40.png","朋友","Word","Image","1150","1000","他人","Mismatch","Formal",""
"","","","","","psychophysics","245","557352","0.0-9.0-0.0-0.0-0.1-0.183","537","","j","","","","","","","","","","","","","key","j","4.165928217821575","768","428","j","true","3_Stimuli/T_ambi40.png","自我","Word","Image","1150","1000","自我","Match","Formal",""
"","","","","","psychophysics","246","559536","0.0-9.0-0.0-0.0-0.1-0.184","1032","","j","","","","","","","","","","","","","key","j","4.16487762906293","768","428","j","true","3_Stimuli/S_ambi40.png","他人","Word","Image","1150","1000","他人","Match","Formal",""
"","","","","","psychophysics","247","561434","0.0-9.0-0.0-0.0-0.1-0.185","747","","j","","","","","","","","","","","","","key","j","4.166193832599226","768","428","f","false","3_Stimuli/T_ambi40.png","朋友","Word","Image","1150","1000","自我","Mismatch","Formal",""
"","","","","","psychophysics","248","563272","0.0-9.0-0.0-0.0-0.1-0.186","686","","j","","","","","","","","","","","","","key","j","4.165963636363581","768","428","f","false","3_Stimuli/T_ambi40.png","朋友","Image","Word","1000","1150","自我","Mismatch","Formal",""
"","","","","","psychophysics","249","565192","0.0-9.0-0.0-0.0-0.1-0.187","768","","f","","","","","","","","","","","","","key","f","4.16618260869569","768","428","f","true","3_Stimuli/C_ambi40.png","他人","Image","Word","1000","1150","朋友","Mismatch","Formal",""
"","","","","","psychophysics","250","566892","0.0-9.0-0.0-0.0-0.1-0.188","548","","j","","","","","","","","","","","","","key","j","4.166226044225996","768","428","j","true","3_Stimuli/C_ambi40.png","朋友","Word","Image","1150","1000","朋友","Match","Formal",""
"","","","","","psychophysics","251","568816","0.0-9.0-0.0-0.0-0.1-0.189","772","","j","","","","","","","","","","","","","key","j","4.166140997830582","768","428","j","true","3_Stimuli/S_ambi40.png","他人","Image","Word","1000","1150","他人","Match","Formal",""
"","","","","","psychophysics","252","570564","0.0-9.0-0.0-0.0-0.1-0.190","595","","j","","","","","","","","","","","","","key","j","4.165337320574243","768","428","j","true","3_Stimuli/C_ambi40.png","朋友","Image","Word","1000","1150","朋友","Match","Formal",""
"","","","","","psychophysics","253","572085","0.0-9.0-0.0-0.0-0.1-0.191","371","","j","","","","","","","","","","","","","key","j","4.165964187327811","768","428","j","true","3_Stimuli/T_ambi40.png","自我","Image","Word","1000","1150","自我","Match","Formal",""
"","","","","","psychophysics","254","573672","0.0-9.0-0.0-0.0-0.1-0.192","433","","j","","","","","","","","","","","","","key","j","4.166110817941967","768","428","f","false","3_Stimuli/T_ambi40.png","他人","Word","Image","1150","1000","自我","Mismatch","Formal",""
"","","","","","psychophysics","255","575099","0.0-9.0-0.0-0.0-0.1-0.193","273","","j","","","","","","","","","","","","","key","j","4.166228739002957","768","428","f","false","3_Stimuli/S_ambi40.png","自我","Image","Word","1000","1150","他人","Mismatch","Formal",""
"","","","","","psychophysics","256","577207","0.0-9.0-0.0-0.0-0.1-0.194","956","","j","","","","","","","","","","","","","key","j","4.166158415841418","768","428","j","true","3_Stimuli/T_ambi40.png","自我","Image","Word","1000","1150","自我","Match","Formal",""
"","","","","","psychophysics","257","579007","0.0-9.0-0.0-0.0-0.1-0.195","648","","j","","","","","","","","","","","","","key","j","4.165990719257577","768","428","j","true","3_Stimuli/C_ambi40.png","朋友","Image","Word","1000","1150","朋友","Match","Formal",""
"","","","","","psychophysics","258","580780","0.0-9.0-0.0-0.0-0.1-0.196","621","","f","","","","","","","","","","","","","key","f","4.17620094562633","768","428","f","true","3_Stimuli/C_ambi40.png","他人","Word","Image","1150","1000","朋友","Mismatch","Formal",""
"","","","","","psychophysics","259","582621","0.0-9.0-0.0-0.0-0.1-0.197","689","","f","","","","","","","","","","","","","key","f","4.166029545454711","768","428","f","true","3_Stimuli/S_ambi40.png","朋友","Word","Image","1150","1000","他人","Mismatch","Formal",""
"","","","","","psychophysics","260","584472","0.0-9.0-0.0-0.0-0.1-0.198","697","","f","","","","","","","","","","","","","key","f","4.166135440180582","768","428","f","true","3_Stimuli/C_ambi40.png","自我","Word","Image","1150","1000","朋友","Mismatch","Formal",""
"","","","","","psychophysics","261","586264","0.0-9.0-0.0-0.0-0.1-0.199","639","","f","","","","","","","","","","","","","key","f","4.166160839160965","768","428","f","true","3_Stimuli/C_ambi40.png","自我","Image","Word","1000","1150","朋友","Mismatch","Formal",""
"","","","","","psychophysics","262","587981","0.0-9.0-0.0-0.0-0.1-0.200","565","","j","","","","","","","","","","","","","key","j","4.166070559610717","768","428","j","true","3_Stimuli/S_ambi40.png","他人","Word","Image","1150","1000","他人","Match","Formal",""
"","","","","","psychophysics","263","589751","0.0-9.0-0.0-0.0-0.1-0.201","618","","j","","","","","","","","","","","","","key","j","4.166075471698038","768","428","j","true","3_Stimuli/T_ambi40.png","自我","Word","Image","1150","1000","自我","Match","Formal",""
"","","","","","psychophysics","264","591527","0.0-9.0-0.0-0.0-0.1-0.202","624","","j","","","","","","","","","","","","","key","j","4.166082352941089","768","428","f","false","3_Stimuli/T_ambi40.png","朋友","Word","Image","1150","1000","自我","Mismatch","Formal",""
"","","","","","psychophysics","265","593197","0.0-9.0-0.0-0.0-0.1-0.203","516","","j","","","","","","","","","","","","","key","j","4.166112781954838","768","428","j","true","3_Stimuli/S_ambi40.png","他人","Image","Word","1000","1150","他人","Match","Formal",""
"","","","","","psychophysics","266","595016","0.0-9.0-0.0-0.0-0.1-0.204","668","","j","","","","","","","","","","","","","key","j","4.1659356321839764","768","428","j","true","3_Stimuli/C_ambi40.png","朋友","Word","Image","1150","1000","朋友","Match","Formal",""
"","","","","","psychophysics","267","596755","0.0-9.0-0.0-0.0-0.1-0.205","588","","j","","","","","","","","","","","","","key","j","4.166079326922884","768","428","j","true","3_Stimuli/C_ambi40.png","朋友","Image","Word","1000","1150","朋友","Match","Formal",""
"","","","","","psychophysics","268","598751","0.0-9.0-0.0-0.0-0.1-0.206","845","","f","","","","","","","","","","","","","key","f","4.166090146750475","768","428","f","true","3_Stimuli/T_ambi40.png","他人","Image","Word","1000","1150","自我","Mismatch","Formal",""
"","","","","","psychophysics","269","600473","0.0-9.0-0.0-0.0-0.1-0.207","571","","j","","","","","","","","","","","","","key","j","4.16626213592233","768","428","j","true","3_Stimuli/T_ambi40.png","自我","Image","Word","1000","1150","自我","Match","Formal",""
"","","","","","psychophysics","270","602091","0.0-9.0-0.0-0.0-0.1-0.208","465","","j","","","","","","","","","","","","","key","j","4.166178294573609","768","428","j","true","3_Stimuli/S_ambi40.png","他人","Image","Word","1000","1150","他人","Match","Formal",""
"","","","","","psychophysics","271","603850","0.0-9.0-0.0-0.0-0.1-0.209","606","","f","","","","","","","","","","","","","key","f","4.166097387173457","768","428","f","true","3_Stimuli/S_ambi40.png","朋友","Image","Word","1000","1150","他人","Mismatch","Formal",""
"","","","","","psychophysics","272","605408","0.0-9.0-0.0-0.0-0.1-0.210","407","","j","","","","","","","","","","","","","key","j","4.1662876344084365","768","428","f","false","3_Stimuli/S_ambi40.png","自我","Word","Image","1150","1000","他人","Mismatch","Formal",""
"","","","","","psychophysics","273","607236","0.0-9.0-0.0-0.0-0.1-0.211","676","","j","","","","","","","","","","","","","key","j","4.166102739726087","768","428","j","true","3_Stimuli/S_ambi40.png","他人","Word","Image","1150","1000","他人","Match","Formal",""
"","","","","","psychophysics","274","609140","0.0-9.0-0.0-0.0-0.1-0.212","752","","f","","","","","","","","","","","","","key","f","4.166201754386093","768","428","j","false","3_Stimuli/C_ambi40.png","朋友","Word","Image","1150","1000","朋友","Match","Formal",""
"","","","","","psychophysics","275","610975","0.0-9.0-0.0-0.0-0.1-0.213","683","","f","","","","","","","","","","","","","key","f","4.1661230068336135","768","428","f","true","3_Stimuli/C_ambi40.png","他人","Image","Word","1000","1150","朋友","Mismatch","Formal",""
"","","","","","psychophysics","276","612783","0.0-9.0-0.0-0.0-0.1-0.214","654","","f","","","","","","","","","","","","","key","f","4.166259259259311","768","428","f","true","3_Stimuli/T_ambi40.png","朋友","Image","Word","1000","1150","自我","Mismatch","Formal",""
"","","","","","psychophysics","277","614381","0.0-9.0-0.0-0.0-0.1-0.215","444","","j","","","","","","","","","","","","","key","j","4.166070680628306","768","428","j","true","3_Stimuli/T_ambi40.png","自我","Word","Image","1150","1000","自我","Match","Formal",""
"","","","","","psychophysics","278","616055","0.0-9.0-0.0-0.0-0.1-0.216","522","","j","","","","","","","","","","","","","key","j","4.166239401496287","768","428","f","false","3_Stimuli/T_ambi40.png","朋友","Word","Image","1150","1000","自我","Mismatch","Formal",""
"","","","","","psychophysics","279","617896","0.0-9.0-0.0-0.0-0.1-0.217","688","","f","","","","","","","","","","","","","key","f","4.165922902494377","768","428","f","true","3_Stimuli/S_ambi40.png","自我","Word","Image","1150","1000","他人","Mismatch","Formal",""
"","","","","","psychophysics","280","619584","0.0-9.0-0.0-0.0-0.1-0.218","535","","j","","","","","","","","","","","","","key","j","4.165982673267401","768","428","j","true","3_Stimuli/S_ambi40.png","他人","Word","Image","1150","1000","他人","Match","Formal",""
"","","","","","psychophysics","281","621243","0.0-9.0-0.0-0.0-0.1-0.219","507","","j","","","","","","","","","","","","","key","j","4.166100755667605","768","428","j","true","3_Stimuli/S_ambi40.png","他人","Image","Word","1000","1150","他人","Match","Formal",""
"","","","","","psychophysics","282","622908","0.0-9.0-0.0-0.0-0.1-0.220","513","","j","","","","","","","","","","","","","key","j","4.165904761904753","768","428","j","true","3_Stimuli/T_ambi40.png","自我","Word","Image","1150","1000","自我","Match","Formal",""
"","","","","","psychophysics","283","624598","0.0-9.0-0.0-0.0-0.1-0.221","537","","j","","","","","","","","","","","","","key","j","4.166403465346712","768","428","f","false","3_Stimuli/C_ambi40.png","自我","Word","Image","1150","1000","朋友","Mismatch","Formal",""
"","","","","","psychophysics","284","626243","0.0-9.0-0.0-0.0-0.1-0.222","495","","j","","","","","","","","","","","","","key","j","4.166073791348878","768","428","j","true","3_Stimuli/C_ambi40.png","朋友","Word","Image","1150","1000","朋友","Match","Formal",""
"","","","","","psychophysics","285","627867","0.0-9.0-0.0-0.0-0.1-0.223","473","","j","","","","","","","","","","","","","key","j","4.1660850515463705","768","428","j","true","3_Stimuli/C_ambi40.png","朋友","Word","Image","1150","1000","朋友","Match","Formal",""
"","","","","","psychophysics","286","629651","0.0-9.0-0.0-0.0-0.1-0.224","633","","j","","","","","","","","","","","","","key","j","4.16609133489455","768","428","j","true","3_Stimuli/S_ambi40.png","他人","Word","Image","1150","1000","他人","Match","Formal",""
"","","","","","psychophysics","287","631607","0.0-9.0-0.0-0.0-0.1-0.225","806","","j","","","","","","","","","","","","","key","j","4.166117521367557","768","428","j","true","3_Stimuli/C_ambi40.png","朋友","Image","Word","1000","1150","朋友","Match","Formal",""
"","","","","","psychophysics","288","633415","0.0-9.0-0.0-0.0-0.1-0.226","656","","f","","","","","","","","","","","","","key","f","4.166094688221696","768","428","f","true","3_Stimuli/T_ambi40.png","朋友","Image","Word","1000","1150","自我","Mismatch","Formal",""
"","","","","","psychophysics","289","635212","0.0-9.0-0.0-0.0-0.1-0.227","646","","j","","","","","","","","","","","","","key","j","4.166281395348677","768","428","f","false","3_Stimuli/S_ambi40.png","朋友","Word","Image","1150","1000","他人","Mismatch","Formal",""
"","","","","","psychophysics","290","637187","0.0-9.0-0.0-0.0-0.1-0.228","824","","f","","","","","","","","","","","","","key","f","4.166101694915057","768","428","f","true","3_Stimuli/S_ambi40.png","自我","Image","Word","1000","1150","他人","Mismatch","Formal",""
"","","","","","psychophysics","291","639011","0.0-9.0-0.0-0.0-0.1-0.229","673","","j","","","","","","","","","","","","","key","j","4.165933638444017","768","428","j","true","3_Stimuli/T_ambi40.png","自我","Image","Word","1000","1150","自我","Match","Formal",""
"","","","","","psychophysics","292","640691","0.0-9.0-0.0-0.0-0.1-0.230","529","","j","","","","","","","","","","","","","key","j","4.1869200000001","768","428","j","true","3_Stimuli/T_ambi40.png","自我","Word","Image","1150","1000","自我","Match","Formal",""
"","","","","","psychophysics","293","642359","0.0-9.0-0.0-0.0-0.1-0.231","514","","j","","","","","","","","","","","","","key","j","4.1761407035177145","768","428","j","true","3_Stimuli/C_ambi40.png","朋友","Image","Word","1000","1150","朋友","Match","Formal",""
"","","","","","psychophysics","294","644079","0.0-9.0-0.0-0.0-0.1-0.232","567","","f","","","","","","","","","","","","","key","f","4.1661995133819","768","428","f","true","3_Stimuli/T_ambi40.png","他人","Word","Image","1150","1000","自我","Mismatch","Formal",""
"","","","","","psychophysics","295","645824","0.0-9.0-0.0-0.0-0.1-0.233","592","","j","","","","","","","","","","","","","key","j","4.166076738609289","768","428","f","false","3_Stimuli/C_ambi40.png","自我","Image","Word","1000","1150","朋友","Mismatch","Formal",""
"","","","","","psychophysics","296","647573","0.0-9.0-0.0-0.0-0.1-0.234","594","","j","","","","","","","","","","","","","key","j","4.166270334928344","768","428","f","false","3_Stimuli/C_ambi40.png","他人","Word","Image","1150","1000","朋友","Mismatch","Formal",""
"","","","","","psychophysics","297","649392","0.0-9.0-0.0-0.0-0.1-0.235","668","","j","","","","","","","","","","","","","key","j","4.166094036697284","768","428","f","false","3_Stimuli/T_ambi40.png","他人","Image","Word","1000","1150","自我","Mismatch","Formal",""
"","","","","","psychophysics","298","651188","0.0-9.0-0.0-0.0-0.1-0.236","644","","j","","","","","","","","","","","","","key","j","4.166209302325787","768","428","f","false","3_Stimuli/S_ambi40.png","朋友","Image","Word","1000","1150","他人","Mismatch","Formal",""
"","","","","","psychophysics","299","652967","0.0-9.0-0.0-0.0-0.1-0.237","626","","j","","","","","","","","","","","","","key","j","4.1660657276996815","768","428","j","true","3_Stimuli/T_ambi40.png","自我","Image","Word","1000","1150","自我","Match","Formal",""
"","","","","","psychophysics","300","654715","0.0-9.0-0.0-0.0-0.1-0.238","596","","j","","","","","","","","","","","","","key","j","4.166234449760846","768","428","j","true","3_Stimuli/S_ambi40.png","他人","Image","Word","1000","1150","他人","Match","Formal",""
"","","","","","psychophysics","301","656501","0.0-9.0-0.0-0.0-0.1-0.239","633","","f","","","","","","","","","","","","","key","f","4.166088992974337","768","428","f","true","3_Stimuli/C_ambi40.png","他人","Image","Word","1000","1150","朋友","Mismatch","Formal",""
"","","","","","html-keyboard-response","302","659451","0.0-9.0-0.0-0.0-1.1","2949","<style>.context{color:white; font-size: 35px; line-height:40px}</style>                        <div><p class='context'>您正确回答了78% 的试次。</p><p class='context'>您的平均反应时为649毫秒。</p><p> <div style = 'color: green'><按任意键进入休息></div></p>"," ","","","","","","","","","","","","","","","","","","","","","","","","","","","","",""
"","","","","","html-button-response","303","743006","0.0-9.0-0.0-0.0-2.1","83553","
                  <p>您当前还剩余4组实验</p>
                  <p>现在是休息时间，当您结束休息后，您可以点击 结束休息 按钮 继续</p>
                  <p>建议休息时间还剩余<span id=""iii"">60</span>秒</p>","0","","","","","","","","","","","","","","","","","","","","","","","","","","","","",""
"","","","","","psychophysics","304","745067","0.0-9.0-0.0-0.0-0.2-0.240","910","","f","","","","","","","","","","","","","key","f","4.180554878048748","768","428","f","true","3_Stimuli/T_ambi40.png","朋友","Word","Image","1150","1000","自我","Mismatch","Formal",""
"","","","","","psychophysics","305","746663","0.0-9.0-0.0-0.0-0.2-0.241","444","","j","","","","","","","","","","","","","key","j","4.166243455497394","768","428","j","true","3_Stimuli/C_ambi40.png","朋友","Word","Image","1150","1000","朋友","Match","Formal",""
"","","","","","psychophysics","306","748311","0.0-9.0-0.0-0.0-0.2-0.242","497","","f","","","","","","","","","","","","","key","f","4.166129113924159","768","428","f","true","3_Stimuli/C_ambi40.png","自我","Word","Image","1150","1000","朋友","Mismatch","Formal",""
"","","","","","psychophysics","307","750063","0.0-9.0-0.0-0.0-0.2-0.243","598","","f","","","","","","","","","","","","","key","f","4.166081145584699","768","428","f","true","3_Stimuli/C_ambi40.png","他人","Word","Image","1150","1000","朋友","Mismatch","Formal",""
"","","","","","psychophysics","308","751664","0.0-9.0-0.0-0.0-0.2-0.244","450","","j","","","","","","","","","","","","","key","j","4.1661570680630025","768","428","j","true","3_Stimuli/T_ambi40.png","自我","Word","Image","1150","1000","自我","Match","Formal",""
"","","","","","psychophysics","309","753607","0.0-9.0-0.0-0.0-0.2-0.245","791","","j","","","","","","","","","","","","","key","j","4.166073118279668","768","428","f","false","3_Stimuli/T_ambi40.png","他人","Word","Image","1150","1000","自我","Mismatch","Formal",""
"","","","","","psychophysics","310","755311","0.0-9.0-0.0-0.0-0.2-0.246","551","","j","","","","","","","","","","","","","key","j","4.166262254902155","768","428","j","true","3_Stimuli/T_ambi40.png","自我","Word","Image","1150","1000","自我","Match","Formal",""
"","","","","","psychophysics","311","757147","0.0-9.0-0.0-0.0-0.2-0.247","685","","j","","","","","","","","","","","","","key","j","4.166266514806465","768","428","f","false","3_Stimuli/S_ambi40.png","朋友","Word","Image","1150","1000","他人","Mismatch","Formal",""
"","","","","","psychophysics","312","758756","0.0-9.0-0.0-0.0-0.2-0.248","455","","j","","","","","","","","","","","","","key","j","4.166077922077777","768","428","j","true","3_Stimuli/T_ambi40.png","自我","Image","Word","1000","1150","自我","Match","Formal",""
"","","","","","psychophysics","313","760339","0.0-9.0-0.0-0.0-0.2-0.249","430","","j","","","","","","","","","","","","","key","j","4.1660844327176685","768","428","j","true","3_Stimuli/C_ambi40.png","朋友","Image","Word","1000","1150","朋友","Match","Formal",""
"","","","","","psychophysics","314","762122","0.0-9.0-0.0-0.0-0.2-0.250","630","","j","","","","","","","","","","","","","key","j","4.185696470588172","768","428","j","true","3_Stimuli/S_ambi40.png","他人","Word","Image","1150","1000","他人","Match","Formal",""
"","","","","","psychophysics","315","764011","0.0-9.0-0.0-0.0-0.2-0.251","737","","j","","","","","","","","","","","","","key","j","4.166092920354032","768","428","f","false","3_Stimuli/T_ambi40.png","朋友","Image","Word","1000","1150","自我","Mismatch","Formal",""
"","","","","","psychophysics","316","765851","0.0-9.0-0.0-0.0-0.2-0.252","689","","j","","","","","","","","","","","","","key","j","4.166167800453314","768","428","j","true","3_Stimuli/T_ambi40.png","自我","Image","Word","1000","1150","自我","Match","Formal",""
"","","","","","psychophysics","317","767875","0.0-9.0-0.0-0.0-0.2-0.253","872","","f","","","","","","","","","","","","","key","f","4.166084536082428","768","428","f","true","3_Stimuli/S_ambi40.png","朋友","Image","Word","1000","1150","他人","Mismatch","Formal",""
"","","","","","psychophysics","318","769663","0.0-9.0-0.0-0.0-0.2-0.254","635","","j","","","","","","","","","","","","","key","j","4.166280373831924","768","428","j","true","3_Stimuli/C_ambi40.png","朋友","Image","Word","1000","1150","朋友","Match","Formal",""
"","","","","","psychophysics","319","771251","0.0-9.0-0.0-0.0-0.2-0.255","435","","j","","","","","","","","","","","","","key","j","4.166171052631322","768","428","j","true","3_Stimuli/S_ambi40.png","他人","Word","Image","1150","1000","他人","Match","Formal",""
"","","","","","psychophysics","320","773164","0.0-9.0-0.0-0.0-0.2-0.256","763","","f","","","","","","","","","","","","","key","f","4.166137554585186","768","428","f","true","3_Stimuli/C_ambi40.png","他人","Image","Word","1000","1150","朋友","Mismatch","Formal",""
"","","","","","psychophysics","321","774995","0.0-9.0-0.0-0.0-0.2-0.257","680","","f","","","","","","","","","","","","","key","f","4.166198630136816","768","428","f","true","3_Stimuli/T_ambi40.png","他人","Image","Word","1000","1150","自我","Mismatch","Formal",""
"","","","","","psychophysics","322","776751","0.0-9.0-0.0-0.0-0.2-0.258","604","","f","","","","","","","","","","","","","key","f","4.166090476190273","768","428","f","true","3_Stimuli/S_ambi40.png","自我","Word","Image","1150","1000","他人","Mismatch","Formal",""
"","","","","","psychophysics","323","778763","0.0-9.0-0.0-0.0-0.2-0.259","861","","j","","","","","","","","","","","","","key","j","4.166085239085214","768","428","j","true","3_Stimuli/S_ambi40.png","他人","Image","Word","1000","1150","他人","Match","Formal",""
"","","","","","psychophysics","324","780658","0.0-9.0-0.0-0.0-0.2-0.260","744","","j","","","","","","","","","","","","","key","j","4.1659889624723405","768","428","f","false","3_Stimuli/C_ambi40.png","自我","Image","Word","1000","1150","朋友","Mismatch","Formal",""
"","","","","","psychophysics","325","782307","0.0-9.0-0.0-0.0-0.2-0.261","497","","j","","","","","","","","","","","","","key","j","4.166060759493774","768","428","j","true","3_Stimuli/C_ambi40.png","朋友","Word","Image","1150","1000","朋友","Match","Formal",""
"","","","","","psychophysics","326","784016","0.0-9.0-0.0-0.0-0.2-0.262","556","","f","","","","","","","","","","","","","key","f","4.16481662591695","768","428","f","true","3_Stimuli/S_ambi40.png","自我","Image","Word","1000","1150","他人","Mismatch","Formal",""
"","","","","","psychophysics","327","785815","0.0-9.0-0.0-0.0-0.2-0.263","647","","f","","","","","","","","","","","","","key","f","4.166241299303999","768","428","j","false","3_Stimuli/S_ambi40.png","他人","Image","Word","1000","1150","他人","Match","Formal",""
"","","","","","psychophysics","328","787511","0.0-9.0-0.0-0.0-0.2-0.264","543","","j","","","","","","","","","","","","","key","j","4.166150246305549","768","428","f","false","3_Stimuli/T_ambi40.png","朋友","Word","Image","1150","1000","自我","Mismatch","Formal",""
"","","","","","psychophysics","329","789406","0.0-9.0-0.0-0.0-0.2-0.265","743","","f","","","","","","","","","","","","","key","f","4.166017660043906","768","428","f","true","3_Stimuli/C_ambi40.png","自我","Image","Word","1000","1150","朋友","Mismatch","Formal",""
"","","","","","psychophysics","330","791063","0.0-9.0-0.0-0.0-0.2-0.266","504","","j","","","","","","","","","","","","","key","j","4.166063131313275","768","428","j","true","3_Stimuli/C_ambi40.png","朋友","Word","Image","1150","1000","朋友","Match","Formal",""
"","","","","","psychophysics","331","792970","0.0-9.0-0.0-0.0-0.2-0.267","753","","j","","","","","","","","","","","","","key","j","4.1659736842102895","768","428","j","true","3_Stimuli/S_ambi40.png","他人","Image","Word","1000","1150","他人","Match","Formal",""
"","","","","","psychophysics","332","794644","0.0-9.0-0.0-0.0-0.2-0.268","523","","j","","","","","","","","","","","","","key","j","4.166375000000117","768","428","j","true","3_Stimuli/T_ambi40.png","自我","Image","Word","1000","1150","自我","Match","Formal",""
"","","","","","psychophysics","333","796315","0.0-9.0-0.0-0.0-0.2-0.269","519","","j","","","","","","","","","","","","","key","j","4.166323308270707","768","428","j","true","3_Stimuli/C_ambi40.png","朋友","Image","Word","1000","1150","朋友","Match","Formal",""
"","","","","","psychophysics","334","797906","0.0-9.0-0.0-0.0-0.2-0.270","440","","j","","","","","","","","","","","","","key","j","4.166154855643179","768","428","f","false","3_Stimuli/T_ambi40.png","他人","Word","Image","1150","1000","自我","Mismatch","Formal",""
"","","","","","psychophysics","335","799668","0.0-9.0-0.0-0.0-0.2-0.271","610","","j","","","","","","","","","","","","","key","j","4.165912322274915","768","428","f","false","3_Stimuli/C_ambi40.png","自我","Word","Image","1150","1000","朋友","Mismatch","Formal",""
"","","","","","psychophysics","336","801403","0.0-9.0-0.0-0.0-0.2-0.272","583","","j","","","","","","","","","","","","","key","j","4.166322891566207","768","428","f","false","3_Stimuli/S_ambi40.png","朋友","Word","Image","1150","1000","他人","Mismatch","Formal",""
"","","","","","psychophysics","337","803183","0.0-9.0-0.0-0.0-0.2-0.273","626","","j","","","","","","","","","","","","","key","j","4.166425882353009","768","428","f","false","3_Stimuli/C_ambi40.png","他人","Image","Word","1000","1150","朋友","Mismatch","Formal",""
"","","","","","psychophysics","338","804796","0.0-9.0-0.0-0.0-0.2-0.274","460","","j","","","","","","","","","","","","","key","j","4.165812987012958","768","428","j","true","3_Stimuli/S_ambi40.png","他人","Image","Word","1000","1150","他人","Match","Formal",""
"","","","","","psychophysics","339","806754","0.0-9.0-0.0-0.0-0.2-0.275","806","","j","","","","","","","","","","","","","key","j","4.166336886993826","768","428","j","true","3_Stimuli/C_ambi40.png","朋友","Image","Word","1000","1150","朋友","Match","Formal",""
"","","","","","psychophysics","340","808306","0.0-9.0-0.0-0.0-0.2-0.276","400","","j","","","","","","","","","","","","","key","j","4.1662999999998895","768","428","j","true","3_Stimuli/T_ambi40.png","自我","Image","Word","1000","1150","自我","Match","Formal",""
"","","","","","psychophysics","341","810138","0.0-9.0-0.0-0.0-0.2-0.277","678","","f","","","","","","","","","","","","","key","f","4.165956621004596","768","428","f","true","3_Stimuli/S_ambi40.png","自我","Word","Image","1150","1000","他人","Mismatch","Formal",""
"","","","","","psychophysics","342","811862","0.0-9.0-0.0-0.0-0.2-0.278","573","","j","","","","","","","","","","","","","key","j","4.166400485436966","768","428","j","true","3_Stimuli/C_ambi40.png","朋友","Word","Image","1150","1000","朋友","Match","Formal",""
"","","","","","psychophysics","343","813483","0.0-9.0-0.0-0.0-0.2-0.279","469","","j","","","","","","","","","","","","","key","j","4.1659123711341985","768","428","j","true","3_Stimuli/S_ambi40.png","他人","Word","Image","1150","1000","他人","Match","Formal",""
"","","","","","psychophysics","344","815360","0.0-9.0-0.0-0.0-0.2-0.280","725","","f","","","","","","","","","","","","","key","f","4.166202672605791","768","428","f","true","3_Stimuli/S_ambi40.png","自我","Image","Word","1000","1150","他人","Mismatch","Formal",""
"","","","","","psychophysics","345","816982","0.0-9.0-0.0-0.0-0.2-0.281","469","","j","","","","","","","","","","","","","key","j","4.166275773195912","768","428","f","false","3_Stimuli/T_ambi40.png","他人","Image","Word","1000","1150","自我","Mismatch","Formal",""
"","","","","","psychophysics","346","818647","0.0-9.0-0.0-0.0-0.2-0.282","513","","j","","","","","","","","","","","","","key","j","4.166143216080402","768","428","f","false","3_Stimuli/S_ambi40.png","朋友","Image","Word","1000","1150","他人","Mismatch","Formal",""
"","","","","","psychophysics","347","820635","0.0-9.0-0.0-0.0-0.2-0.283","838","","f","","","","","","","","","","","","","key","f","4.166250000000019","768","428","f","true","3_Stimuli/C_ambi40.png","他人","Word","Image","1150","1000","朋友","Mismatch","Formal",""
"","","","","","psychophysics","348","822495","0.0-9.0-0.0-0.0-0.2-0.284","707","","j","","","","","","","","","","","","","key","j","4.185216704288889","768","428","f","false","3_Stimuli/T_ambi40.png","朋友","Image","Word","1000","1150","自我","Mismatch","Formal",""
"","","","","","psychophysics","349","824135","0.0-9.0-0.0-0.0-0.2-0.285","489","","j","","","","","","","","","","","","","key","j","4.165910941475775","768","428","j","true","3_Stimuli/T_ambi40.png","自我","Word","Image","1150","1000","自我","Match","Formal",""
"","","","","","psychophysics","350","825757","0.0-9.0-0.0-0.0-0.2-0.286","469","","j","","","","","","","","","","","","","key","j","4.166605670102896","768","428","j","true","3_Stimuli/S_ambi40.png","他人","Word","Image","1150","1000","他人","Match","Formal",""
"","","","","","psychophysics","351","827443","0.0-9.0-0.0-0.0-0.2-0.287","535","","j","","","","","","","","","","","","","key","j","4.166131188118736","768","428","j","true","3_Stimuli/T_ambi40.png","自我","Word","Image","1150","1000","自我","Match","Formal",""
"","","","","","psychophysics","352","829339","0.0-9.0-0.0-0.0-0.2-0.288","743","","j","","","","","","","","","","","","","key","j","4.166226872246834","768","428","f","false","3_Stimuli/T_ambi40.png","朋友","Image","Word","1000","1150","自我","Mismatch","Formal",""
"","","","","","psychophysics","353","831527","0.0-9.0-0.0-0.0-0.2-0.289","1037","","f","","","","","","","","","","","","","key","f","4.166173664122049","768","428","f","true","3_Stimuli/S_ambi40.png","朋友","Image","Word","1000","1150","他人","Mismatch","Formal",""
"","","","","","psychophysics","354","833343","0.0-9.0-0.0-0.0-0.2-0.290","665","","j","","","","","","","","","","","","","key","j","4.166241935483815","768","428","j","true","3_Stimuli/C_ambi40.png","朋友","Word","Image","1150","1000","朋友","Match","Formal",""
"","","","","","psychophysics","355","835171","0.0-9.0-0.0-0.0-0.2-0.291","676","","j","","","","","","","","","","","","","key","j","4.166289954337815","768","428","j","true","3_Stimuli/C_ambi40.png","朋友","Word","Image","1150","1000","朋友","Match","Formal",""
"","","","","","psychophysics","356","837076","0.0-9.0-0.0-0.0-0.2-0.292","753","","f","","","","","","","","","","","","","key","f","4.166221491228115","768","428","f","true","3_Stimuli/T_ambi40.png","朋友","Word","Image","1150","1000","自我","Mismatch","Formal",""
"","","","","","psychophysics","357","839131","0.0-9.0-0.0-0.0-0.2-0.293","903","","f","","","","","","","","","","","","","key","f","4.166079429735319","768","428","j","false","3_Stimuli/S_ambi40.png","他人","Image","Word","1000","1150","他人","Match","Formal",""
"","","","","","psychophysics","358","840954","0.0-9.0-0.0-0.0-0.2-0.294","673","","f","","","","","","","","","","","","","key","f","4.166110091743117","768","428","f","true","3_Stimuli/S_ambi40.png","朋友","Word","Image","1150","1000","他人","Mismatch","Formal",""
"","","","","","psychophysics","359","842731","0.0-9.0-0.0-0.0-0.2-0.295","625","","j","","","","","","","","","","","","","key","j","4.166195294117445","768","428","j","true","3_Stimuli/T_ambi40.png","自我","Image","Word","1000","1150","自我","Match","Formal",""
"","","","","","psychophysics","360","844350","0.0-9.0-0.0-0.0-0.2-0.296","465","","j","","","","","","","","","","","","","key","j","4.166038759689879","768","428","j","true","3_Stimuli/T_ambi40.png","自我","Word","Image","1150","1000","自我","Match","Formal",""
"","","","","","psychophysics","361","846007","0.0-9.0-0.0-0.0-0.2-0.297","505","","j","","","","","","","","","","","","","key","j","4.166430730478526","768","428","f","false","3_Stimuli/T_ambi40.png","他人","Word","Image","1150","1000","自我","Mismatch","Formal",""
"","","","","","psychophysics","362","847804","0.0-9.0-0.0-0.0-0.2-0.298","645","","f","","","","","","","","","","","","","key","f","4.166104651162899","768","428","f","true","3_Stimuli/C_ambi40.png","自我","Image","Word","1000","1150","朋友","Mismatch","Formal",""
"","","","","","psychophysics","363","849547","0.0-9.0-0.0-0.0-0.2-0.299","592","","j","","","","","","","","","","","","","key","j","4.166117788461493","768","428","f","false","3_Stimuli/C_ambi40.png","自我","Word","Image","1150","1000","朋友","Mismatch","Formal",""
"","","","","","psychophysics","364","851359","0.0-9.0-0.0-0.0-0.2-0.300","658","","j","","","","","","","","","","","","","key","j","4.165958429561169","768","428","f","false","3_Stimuli/C_ambi40.png","他人","Word","Image","1150","1000","朋友","Mismatch","Formal",""
"","","","","","psychophysics","365","853547","0.0-9.0-0.0-0.0-0.2-0.301","1035","","f","","","","","","","","","","","","","key","f","4.166043893129739","768","428","j","false","3_Stimuli/C_ambi40.png","朋友","Image","Word","1000","1150","朋友","Match","Formal",""
"","","","","","psychophysics","366","855174","0.0-9.0-0.0-0.0-0.2-0.302","474","","j","","","","","","","","","","","","","key","j","4.166053984575764","768","428","j","true","3_Stimuli/S_ambi40.png","他人","Image","Word","1000","1150","他人","Match","Formal",""
"","","","","","psychophysics","367","856915","0.0-9.0-0.0-0.0-0.2-0.303","590","","j","","","","","","","","","","","","","key","j","4.166360576923091","768","428","j","true","3_Stimuli/T_ambi40.png","自我","Image","Word","1000","1150","自我","Match","Formal",""
"","","","","","psychophysics","368","858773","0.0-9.0-0.0-0.0-0.2-0.304","707","","j","","","","","","","","","","","","","key","j","4.166096629213353","768","428","j","true","3_Stimuli/S_ambi40.png","他人","Word","Image","1150","1000","他人","Match","Formal",""
"","","","","","psychophysics","369","860755","0.0-9.0-0.0-0.0-0.2-0.305","831","","f","","","","","","","","","","","","","key","f","4.166242105263089","768","428","f","true","3_Stimuli/S_ambi40.png","自我","Image","Word","1000","1150","他人","Mismatch","Formal",""
"","","","","","psychophysics","370","862419","0.0-9.0-0.0-0.0-0.2-0.306","511","","j","","","","","","","","","","","","","key","j","4.176720403022806","768","428","j","true","3_Stimuli/T_ambi40.png","自我","Word","Image","1150","1000","自我","Match","Formal",""
"","","","","","psychophysics","371","864101","0.0-9.0-0.0-0.0-0.2-0.307","531","","f","","","","","","","","","","","","","key","f","4.16728855721393","768","428","f","true","3_Stimuli/T_ambi40.png","他人","Image","Word","1000","1150","自我","Mismatch","Formal",""
"","","","","","psychophysics","372","865791","0.0-9.0-0.0-0.0-0.2-0.308","538","","j","","","","","","","","","","","","","key","j","4.165659259259126","768","428","j","true","3_Stimuli/S_ambi40.png","他人","Word","Image","1150","1000","他人","Match","Formal",""
"","","","","","psychophysics","373","867667","0.0-9.0-0.0-0.0-0.2-0.309","724","","f","","","","","","","","","","","","","key","f","4.1661492204900314","768","428","f","true","3_Stimuli/C_ambi40.png","他人","Image","Word","1000","1150","朋友","Mismatch","Formal",""
"","","","","","psychophysics","374","869513","0.0-9.0-0.0-0.0-0.2-0.310","694","","j","","","","","","","","","","","","","key","j","4.166074660633547","768","428","j","true","3_Stimuli/C_ambi40.png","朋友","Image","Word","1000","1150","朋友","Match","Formal",""
"","","","","","psychophysics","375","871171","0.0-9.0-0.0-0.0-0.2-0.311","507","","f","","","","","","","","","","","","","key","f","4.166156171284726","768","428","f","true","3_Stimuli/S_ambi40.png","自我","Word","Image","1150","1000","他人","Mismatch","Formal",""
"","","","","","psychophysics","376","872895","0.0-9.0-0.0-0.0-0.2-0.312","573","","j","","","","","","","","","","","","","key","j","4.164452784503618","768","428","f","false","3_Stimuli/T_ambi40.png","他人","Image","Word","1000","1150","自我","Mismatch","Formal",""
"","","","","","psychophysics","377","874794","0.0-9.0-0.0-0.0-0.2-0.313","747","","f","","","","","","","","","","","","","key","f","4.166224175824139","768","428","f","true","3_Stimuli/T_ambi40.png","朋友","Image","Word","1000","1150","自我","Mismatch","Formal",""
"","","","","","psychophysics","378","876506","0.0-9.0-0.0-0.0-0.2-0.314","559","","j","","","","","","","","","","","","","key","j","4.166241463414598","768","428","f","false","3_Stimuli/C_ambi40.png","自我","Word","Image","1150","1000","朋友","Mismatch","Formal",""
"","","","","","psychophysics","379","878226","0.0-9.0-0.0-0.0-0.2-0.315","567","","j","","","","","","","","","","","","","key","j","4.166070388349449","768","428","j","true","3_Stimuli/T_ambi40.png","自我","Image","Word","1000","1150","自我","Match","Formal",""
"","","","","","psychophysics","380","880060","0.0-9.0-0.0-0.0-0.2-0.316","680","","j","","","","","","","","","","","","","key","j","4.17575114155236","768","428","j","true","3_Stimuli/S_ambi40.png","他人","Image","Word","1000","1150","他人","Match","Formal",""
"","","","","","psychophysics","381","882030","0.0-9.0-0.0-0.0-0.2-0.317","818","","j","","","","","","","","","","","","","key","j","4.201679487179608","768","428","f","false","3_Stimuli/S_ambi40.png","朋友","Word","Image","1150","1000","他人","Mismatch","Formal",""
