"success","timeout","failed_images","failed_audio","failed_video","trial_type","trial_index","time_elapsed","internal_node_id","rt","stimulus","response","value","item_width_mm","item_height_mm","item_width_px","px2mm","view_dist_mm","item_width_deg","px2deg","scale_factor","win_width_deg","win_height_deg","view_history","response_type","key_press","avg_frame_time","center_x","center_y","image","word","target","valence","matchness","correct_response","correct","exp_condition","screen_id"
"true","false","[]","[]","[]","preload","0","5","0.0-0.0","","","","","","","","","","","","","","","","","","","","","","","","","","","","",""
"","","","","","html-keyboard-response","1","554","0.0-1.0","549","
     <p>您好，欢迎参加本次实验。</p>
     <p>为充分保障您的权利，请确保您已经知晓并同意《参与实验同意书》以及《数据公开知情同意书》。</p>
     <p>如果您未见过上述内容，请咨询实验员。</p>
     <p>如果您选择继续实验，则表示您已经清楚两份知情同意书的内容并同意。</p>
     <p> <div style = ""color: green""><按任意键至下页></div> </p>
     ","f","","","","","","","","","","","","","","","","","","","","","","","","","",""
"","","","","","html-keyboard-response","2","724","0.0-2.0-0.0","170","
      <p>本实验首先需要您填写一些基本个人信息。</p>
      <p> <div style = ""color: green""><按任意键至下页></div></p>
      ","f","","","","","","","","","","","","","","","","","","","","","","","","","",""
"","","","","","call-function","3","725","0.0-2.0-1.0","","","","","","","","","","","","","","","","","","","","","","","","","","","","",""
"","","","","","survey-html-form","4","2308","0.0-2.0-2.0","1582","","{""Q0"":""1""}","","","","","","","","","","","","","","","","","","","","","","","","","",""
"","","","","","html-button-response","5","3048","0.0-2.0-3.0","739","<p style = 'color : white'>您的性别</p>","0","","","","","","","","","","","","","","","","","","","","","","","","","",""
"","","","","","survey-html-form","6","4490","0.0-2.0-4.0","1441","","{""Q0"":""1900""}","","","","","","","","","","","","","","","","","","","","","","","","","",""
"","","","","","survey-html-form","7","5323","0.0-2.0-5.0","829","","{""Q0"":""5""}","","","","","","","","","","","","","","","","","","","","","","","","","",""
"","","","","","virtual-chinrest","8","33493","0.0-3.0","28166","","","","85.6","53.98","498.8801115760992","5.8246211979827285","490.31","9.977602231521983","50","0.7657150307979951","28.8","15.66","","","","","","","","","","","","","","",""
"true","","","","","fullscreen","9","35167","0.0-4.0","","","","","","","","","","","","","","","","","","","","","","","","","","","","",""
"","","","","","instructions","10","41932","0.0-5.0","6763","","","","","","","","","","","","","","[{""page_index"":0,""viewing_time"":652},{""page_index"":1,""viewing_time"":2841},{""page_index"":2,""viewing_time"":1061},{""page_index"":3,""viewing_time"":1144},{""page_index"":4,""viewing_time"":1065}]","","","","","","","","","","","","","",""
"","","","","","psychophysics","11","43845","0.0-6.0-0.0-0.0","693","","j","","","","","","","","","","","","","key","j","17.859102040816353","720","446","3_Stimuli/T_ambi40.png","自我","Image","朋友","Mismatch","f","false","Practice",""
"","","","","","html-keyboard-response","12","44150","0.0-6.0-0.0-1.0","null","<span style='color:red; font-size: 70px;'>错误! </span>","null","","","","","","","","","","","","","","","","","","","","","","","","","","feedback"
"","","","","","psychophysics","13","46056","0.0-6.0-0.0-0.1","705","","j","","","","","","","","","","","","","key","j","16.666000000000015","720","446","3_Stimuli/T_ambi40.png","朋友","Word","朋友","Match","j","true","Practice",""
"","","","","","html-keyboard-response","14","46360","0.0-6.0-0.0-1.1","null","<span style='color:GreenYellow; font-size: 70px;'>正确! </span>","null","","","","","","","","","","","","","","","","","","","","","","","","","","feedback"
"","","","","","psychophysics","15","48411","0.0-6.0-0.0-0.2","850","","f","","","","","","","","","","","","","key","f","16.666000000000004","720","446","3_Stimuli/T_ambi40.png","自我","Word","朋友","Mismatch","f","true","Practice",""
"","","","","","html-keyboard-response","16","48713","0.0-6.0-0.0-1.2","null","<span style='color:GreenYellow; font-size: 70px;'>正确! </span>","null","","","","","","","","","","","","","","","","","","","","","","","","","","feedback"
"","","","","","psychophysics","17","50693","0.0-6.0-0.0-0.3","779","","f","","","","","","","","","","","","","key","f","16.66599999999999","720","446","3_Stimuli/C_ambi40.png","朋友","Word","自我","Mismatch","f","true","Practice",""
"","","","","","html-keyboard-response","18","50994","0.0-6.0-0.0-1.3","null","<span style='color:GreenYellow; font-size: 70px;'>正确! </span>","null","","","","","","","","","","","","","","","","","","","","","","","","","","feedback"
"","","","","","psychophysics","19","53584","0.0-6.0-0.0-0.4","1389","","f","","","","","","","","","","","","","key","f","16.667696774193562","720","446","3_Stimuli/C_ambi40.png","他人","Image","自我","Mismatch","f","true","Practice",""
"","","","","","html-keyboard-response","20","53888","0.0-6.0-0.0-1.4","null","<span style='color:GreenYellow; font-size: 70px;'>正确! </span>","null","","","","","","","","","","","","","","","","","","","","","","","","","","feedback"
"","","","","","psychophysics","21","55472","0.0-6.0-0.0-0.5","382","","j","","","","","","","","","","","","","key","j","16.66600000000007","720","446","3_Stimuli/C_ambi40.png","自我","Word","自我","Match","j","true","Practice",""
"","","","","","html-keyboard-response","22","55773","0.0-6.0-0.0-1.5","null","<span style='color:GreenYellow; font-size: 70px;'>正确! </span>","null","","","","","","","","","","","","","","","","","","","","","","","","","","feedback"
"","","","","","psychophysics","23","57626","0.0-6.0-0.0-0.6","650","","f","","","","","","","","","","","","","key","f","16.666000000000018","720","446","3_Stimuli/S_ambi40.png","自我","Word","他人","Mismatch","f","true","Practice",""
"","","","","","html-keyboard-response","24","57927","0.0-6.0-0.0-1.6","null","<span style='color:GreenYellow; font-size: 70px;'>正确! </span>","null","","","","","","","","","","","","","","","","","","","","","","","","","","feedback"
"","","","","","psychophysics","25","59555","0.0-6.0-0.0-0.7","425","","j","","","","","","","","","","","","","key","j","16.66599999999999","720","446","3_Stimuli/T_ambi40.png","朋友","Word","朋友","Match","j","true","Practice",""
"","","","","","html-keyboard-response","26","59859","0.0-6.0-0.0-1.7","null","<span style='color:GreenYellow; font-size: 70px;'>正确! </span>","null","","","","","","","","","","","","","","","","","","","","","","","","","","feedback"
"","","","","","psychophysics","27","61798","0.0-6.0-0.0-0.8","735","","f","","","","","","","","","","","","","key","f","16.66600000000001","720","446","3_Stimuli/C_ambi40.png","自我","Word","自我","Match","j","false","Practice",""
"","","","","","html-keyboard-response","28","62101","0.0-6.0-0.0-1.8","null","<span style='color:red; font-size: 70px;'>错误! </span>","null","","","","","","","","","","","","","","","","","","","","","","","","","","feedback"
"","","","","","psychophysics","29","63454","0.0-6.0-0.0-0.9","151","","j","","","","","","","","","","","","","key","j","16.669275000000017","720","446","3_Stimuli/T_ambi40.png","朋友","Image","朋友","Match","j","true","Practice",""
"","","","","","html-keyboard-response","30","63757","0.0-6.0-0.0-1.9","null","<span style='color:yellow; font-size: 70px;'>过快! </span>","null","","","","","","","","","","","","","","","","","","","","","","","","","","feedback"
"","","","","","psychophysics","31","66464","0.0-6.0-0.0-0.10","null","","null","","","","","","","","","","","","","key","null","16.66599999999997","720","446","3_Stimuli/T_ambi40.png","他人","Word","朋友","Mismatch","f","false","Practice",""
"","","","","","html-keyboard-response","32","66766","0.0-6.0-0.0-1.10","null","<span class='add_' style='color:yellow; font-size: 70px;'> 太慢! </span>","null","","","","","","","","","","","","","","","","","","","","","","","","","","feedback"
"","","","","","psychophysics","33","69469","0.0-6.0-0.0-0.11","null","","null","","","","","","","","","","","","","key","null","19.58559124087588","720","446","3_Stimuli/T_ambi40.png","他人","Image","朋友","Mismatch","f","false","Practice",""
"","","","","","html-keyboard-response","34","69773","0.0-6.0-0.0-1.11","null","<span class='add_' style='color:yellow; font-size: 70px;'> 太慢! </span>","null","","","","","","","","","","","","","","","","","","","","","","","","","","feedback"
"","","","","","psychophysics","35","72476","0.0-6.0-0.0-0.12","null","","null","","","","","","","","","","","","","key","null","16.66600000000006","720","446","3_Stimuli/S_ambi40.png","他人","Image","他人","Match","j","false","Practice",""
"","","","","","html-keyboard-response","36","72781","0.0-6.0-0.0-1.12","null","<span class='add_' style='color:yellow; font-size: 70px;'> 太慢! </span>","null","","","","","","","","","","","","","","","","","","","","","","","","","","feedback"
"","","","","","psychophysics","37","75486","0.0-6.0-0.0-0.13","null","","null","","","","","","","","","","","","","key","null","16.771799999999985","720","446","3_Stimuli/S_ambi40.png","朋友","Image","他人","Mismatch","f","false","Practice",""
"","","","","","html-keyboard-response","38","75790","0.0-6.0-0.0-1.13","null","<span class='add_' style='color:yellow; font-size: 70px;'> 太慢! </span>","null","","","","","","","","","","","","","","","","","","","","","","","","","","feedback"
"","","","","","psychophysics","39","78497","0.0-6.0-0.0-0.14","null","","null","","","","","","","","","","","","","key","null","17.537424836601275","720","446","3_Stimuli/C_ambi40.png","自我","Image","自我","Match","j","false","Practice",""
"","","","","","html-keyboard-response","40","78802","0.0-6.0-0.0-1.14","null","<span class='add_' style='color:yellow; font-size: 70px;'> 太慢! </span>","null","","","","","","","","","","","","","","","","","","","","","","","","","","feedback"
"","","","","","psychophysics","41","81510","0.0-6.0-0.0-0.15","null","","null","","","","","","","","","","","","","key","null","16.77016249999997","720","446","3_Stimuli/T_ambi40.png","朋友","Image","朋友","Match","j","false","Practice",""
"","","","","","html-keyboard-response","42","81811","0.0-6.0-0.0-1.15","null","<span class='add_' style='color:yellow; font-size: 70px;'> 太慢! </span>","null","","","","","","","","","","","","","","","","","","","","","","","","","","feedback"
"","","","","","psychophysics","43","84514","0.0-6.0-0.0-0.16","null","","null","","","","","","","","","","","","","key","null","16.667623456790118","720","446","3_Stimuli/S_ambi40.png","他人","Word","他人","Match","j","false","Practice",""
"","","","","","html-keyboard-response","44","84820","0.0-6.0-0.0-1.16","null","<span class='add_' style='color:yellow; font-size: 70px;'> 太慢! </span>","null","","","","","","","","","","","","","","","","","","","","","","","","","","feedback"
"","","","","","psychophysics","45","87525","0.0-6.0-0.0-0.17","null","","null","","","","","","","","","","","","","key","null","16.66599999999997","720","446","3_Stimuli/C_ambi40.png","他人","Word","自我","Mismatch","f","false","Practice",""
"","","","","","html-keyboard-response","46","87827","0.0-6.0-0.0-1.17","null","<span class='add_' style='color:yellow; font-size: 70px;'> 太慢! </span>","null","","","","","","","","","","","","","","","","","","","","","","","","","","feedback"
"","","","","","psychophysics","47","90534","0.0-6.0-0.0-0.18","null","","null","","","","","","","","","","","","","key","null","17.53742483660137","720","446","3_Stimuli/C_ambi40.png","自我","Image","自我","Match","j","false","Practice",""
"","","","","","html-keyboard-response","48","90840","0.0-6.0-0.0-1.18","null","<span class='add_' style='color:yellow; font-size: 70px;'> 太慢! </span>","null","","","","","","","","","","","","","","","","","","","","","","","","","","feedback"
"","","","","","psychophysics","49","93543","0.0-6.0-0.0-0.19","null","","null","","","","","","","","","","","","","key","null","16.66762732919253","720","446","3_Stimuli/S_ambi40.png","朋友","Word","他人","Mismatch","f","false","Practice",""
"","","","","","html-keyboard-response","50","93846","0.0-6.0-0.0-1.19","null","<span class='add_' style='color:yellow; font-size: 70px;'> 太慢! </span>","null","","","","","","","","","","","","","","","","","","","","","","","","","","feedback"
"","","","","","psychophysics","51","96550","0.0-6.0-0.0-0.20","null","","null","","","","","","","","","","","","","key","null","16.66599999999997","720","446","3_Stimuli/S_ambi40.png","他人","Image","他人","Match","j","false","Practice",""
"","","","","","html-keyboard-response","52","96856","0.0-6.0-0.0-1.20","null","<span class='add_' style='color:yellow; font-size: 70px;'> 太慢! </span>","null","","","","","","","","","","","","","","","","","","","","","","","","","","feedback"
"","","","","","psychophysics","53","99559","0.0-6.0-0.0-0.21","null","","null","","","","","","","","","","","","","key","null","16.66599999999997","720","446","3_Stimuli/C_ambi40.png","朋友","Image","自我","Mismatch","f","false","Practice",""
"","","","","","html-keyboard-response","54","99860","0.0-6.0-0.0-1.21","null","<span class='add_' style='color:yellow; font-size: 70px;'> 太慢! </span>","null","","","","","","","","","","","","","","","","","","","","","","","","","","feedback"
"","","","","","psychophysics","55","102565","0.0-6.0-0.0-0.22","null","","null","","","","","","","","","","","","","key","null","17.8881733333334","720","446","3_Stimuli/S_ambi40.png","他人","Word","他人","Match","j","false","Practice",""
"","","","","","html-keyboard-response","56","102870","0.0-6.0-0.0-1.22","null","<span class='add_' style='color:yellow; font-size: 70px;'> 太慢! </span>","null","","","","","","","","","","","","","","","","","","","","","","","","","","feedback"
"","","","","","psychophysics","57","105572","0.0-6.0-0.0-0.23","null","","null","","","","","","","","","","","","","key","null","16.66763354037268","720","446","3_Stimuli/S_ambi40.png","自我","Image","他人","Mismatch","f","false","Practice",""
"","","","","","html-keyboard-response","58","105874","0.0-6.0-0.0-1.23","null","<span class='add_' style='color:yellow; font-size: 70px;'> 太慢! </span>","null","","","","","","","","","","","","","","","","","","","","","","","","","","feedback"
"","","","","","html-keyboard-response","59","118271","0.0-7.0","12385","<style>.context{color:white; font-size: 35px; line-height:40px}</style>                          <div><p class='context'>您正确回答了33% 的试次。</p><p class='context'>您的平均反应时为666毫秒。</p><p class='context'>恭喜您完成练习。按任意键进入正式实验。</p><p class='footer' style='font-size: 35px; line-height:40px;'>请在进入正式实验实验之前将您的<span style='color: lightgreen;'>食指</span>放在电脑键盘的相应键位上进行按键。</p>","j","","","","","","","","","","","","","","","","","","","","","","","","","",""
"","","","","","psychophysics","60","120006","0.0-8.0-0.0-0.0","516","","j","","","","","","","","","","","","","key","j","16.669862745098047","720","446","3_Stimuli/C_ambi40.png","自我","Image","自我","Match","j","true","Formal",""
"","","","","","psychophysics","61","121806","0.0-8.0-0.0-0.1","596","","j","","","","","","","","","","","","","key","j","16.66599999999991","720","446","3_Stimuli/S_ambi40.png","他人","Image","他人","Match","j","true","Formal",""
"","","","","","psychophysics","62","123404","0.0-8.0-0.0-0.2","395","","j","","","","","","","","","","","","","key","j","16.66599999999989","720","446","3_Stimuli/S_ambi40.png","自我","Word","他人","Mismatch","f","false","Formal",""
"","","","","","psychophysics","63","125054","0.0-8.0-0.0-0.3","447","","j","","","","","","","","","","","","","key","j","16.66600000000011","720","446","3_Stimuli/S_ambi40.png","自我","Image","他人","Mismatch","f","false","Formal",""
"","","","","","psychophysics","64","127756","0.0-8.0-0.0-0.4","null","","null","","","","","","","","","","","","","key","null","16.66599999999997","720","446","3_Stimuli/S_ambi40.png","他人","Image","他人","Match","j","false","Formal",""
"","","","","","psychophysics","65","130460","0.0-8.0-0.0-0.5","null","","null","","","","","","","","","","","","","key","null","16.66763354037268","720","446","3_Stimuli/T_ambi40.png","自我","Word","朋友","Mismatch","f","false","Formal",""
"","","","","","psychophysics","66","133163","0.0-8.0-0.0-0.6","null","","null","","","","","","","","","","","","","key","null","16.66599999999988","720","446","3_Stimuli/T_ambi40.png","自我","Image","朋友","Mismatch","f","false","Formal",""
"","","","","","psychophysics","67","135867","0.0-8.0-0.0-0.7","null","","null","","","","","","","","","","","","","key","null","16.66599999999997","720","446","3_Stimuli/T_ambi40.png","朋友","Word","朋友","Match","j","false","Formal",""
"","","","","","psychophysics","68","138569","0.0-8.0-0.0-0.8","null","","null","","","","","","","","","","","","","key","null","16.66762732919244","720","446","3_Stimuli/C_ambi40.png","朋友","Image","自我","Mismatch","f","false","Formal",""
"","","","","","psychophysics","69","141271","0.0-8.0-0.0-0.9","null","","null","","","","","","","","","","","","","key","null","16.66599999999997","720","446","3_Stimuli/S_ambi40.png","他人","Word","他人","Match","j","false","Formal",""
"","","","","","psychophysics","70","143975","0.0-8.0-0.0-0.10","null","","null","","","","","","","","","","","","","key","null","16.66599999999997","720","446","3_Stimuli/T_ambi40.png","朋友","Word","朋友","Match","j","false","Formal",""
"","","","","","psychophysics","71","146678","0.0-8.0-0.0-0.11","null","","null","","","","","","","","","","","","","key","null","16.665999999999954","720","446","3_Stimuli/C_ambi40.png","自我","Word","自我","Match","j","false","Formal",""
"","","","","","psychophysics","72","149384","0.0-8.0-0.0-0.12","null","","null","","","","","","","","","","","","","key","null","16.66763354037268","720","446","3_Stimuli/T_ambi40.png","他人","Image","朋友","Mismatch","f","false","Formal",""
"","","","","","psychophysics","73","152087","0.0-8.0-0.0-0.13","null","","null","","","","","","","","","","","","","key","null","16.66600000000015","720","446","3_Stimuli/S_ambi40.png","朋友","Word","他人","Mismatch","f","false","Formal",""
"","","","","","psychophysics","74","154793","0.0-8.0-0.0-0.14","null","","null","","","","","","","","","","","","","key","null","16.66599999999997","720","446","3_Stimuli/T_ambi40.png","朋友","Image","朋友","Match","j","false","Formal",""
"","","","","","psychophysics","75","157496","0.0-8.0-0.0-0.15","null","","null","","","","","","","","","","","","","key","null","16.66599999999997","720","446","3_Stimuli/C_ambi40.png","自我","Image","自我","Match","j","false","Formal",""
"","","","","","psychophysics","76","160198","0.0-8.0-0.0-0.16","null","","null","","","","","","","","","","","","","key","null","16.667627329192623","720","446","3_Stimuli/T_ambi40.png","他人","Word","朋友","Mismatch","f","false","Formal",""
"","","","","","psychophysics","77","162900","0.0-8.0-0.0-0.17","null","","null","","","","","","","","","","","","","key","null","16.66599999999997","720","446","3_Stimuli/C_ambi40.png","他人","Word","自我","Mismatch","f","false","Formal",""
"","","","","","psychophysics","78","165607","0.0-8.0-0.0-0.18","null","","null","","","","","","","","","","","","","key","null","16.66599999999997","720","446","3_Stimuli/S_ambi40.png","朋友","Image","他人","Mismatch","f","false","Formal",""
"","","","","","psychophysics","79","168312","0.0-8.0-0.0-0.19","null","","null","","","","","","","","","","","","","key","null","16.66600000000015","720","446","3_Stimuli/C_ambi40.png","自我","Word","自我","Match","j","false","Formal",""
"","","","","","psychophysics","80","171019","0.0-8.0-0.0-0.20","null","","null","","","","","","","","","","","","","key","null","16.66763354037268","720","446","3_Stimuli/C_ambi40.png","他人","Image","自我","Mismatch","f","false","Formal",""
"","","","","","psychophysics","81","173722","0.0-8.0-0.0-0.21","null","","null","","","","","","","","","","","","","key","null","16.66599999999997","720","446","3_Stimuli/S_ambi40.png","他人","Word","他人","Match","j","false","Formal",""
"","","","","","psychophysics","82","176434","0.0-8.0-0.0-0.22","null","","null","","","","","","","","","","","","","key","null","16.66599999999997","720","446","3_Stimuli/T_ambi40.png","朋友","Image","朋友","Match","j","false","Formal",""
"","","","","","psychophysics","83","179137","0.0-8.0-0.0-0.23","null","","null","","","","","","","","","","","","","key","null","16.667627329192623","720","446","3_Stimuli/C_ambi40.png","朋友","Word","自我","Mismatch","f","false","Formal",""
"","","","","","psychophysics","84","181848","0.0-8.0-0.0-0.24","null","","null","","","","","","","","","","","","","key","null","16.66599999999997","720","446","3_Stimuli/S_ambi40.png","他人","Word","他人","Match","j","false","Formal",""
"","","","","","psychophysics","85","184551","0.0-8.0-0.0-0.25","null","","null","","","","","","","","","","","","","key","null","16.66600000000015","720","446","3_Stimuli/C_ambi40.png","朋友","Word","自我","Mismatch","f","false","Formal",""
"","","","","","psychophysics","86","187261","0.0-8.0-0.0-0.26","null","","null","","","","","","","","","","","","","key","null","16.66599999999997","720","446","3_Stimuli/T_ambi40.png","他人","Word","朋友","Mismatch","f","false","Formal",""
"","","","","","psychophysics","87","189964","0.0-8.0-0.0-0.27","null","","null","","","","","","","","","","","","","key","null","16.66763354037268","720","446","3_Stimuli/S_ambi40.png","朋友","Image","他人","Mismatch","f","false","Formal",""
"","","","","","psychophysics","88","192671","0.0-8.0-0.0-0.28","null","","null","","","","","","","","","","","","","key","null","16.66599999999997","720","446","3_Stimuli/S_ambi40.png","他人","Image","他人","Match","j","false","Formal",""
"","","","","","psychophysics","89","195375","0.0-8.0-0.0-0.29","null","","null","","","","","","","","","","","","","key","null","16.66600000000015","720","446","3_Stimuli/S_ambi40.png","自我","Image","他人","Mismatch","f","false","Formal",""
"","","","","","psychophysics","90","198079","0.0-8.0-0.0-0.30","null","","null","","","","","","","","","","","","","key","null","16.66599999999997","720","446","3_Stimuli/T_ambi40.png","朋友","Word","朋友","Match","j","false","Formal",""
"","","","","","psychophysics","91","200817","0.0-8.0-0.0-0.31","null","","null","","","","","","","","","","","","","key","null","16.77521290322578","720","446","3_Stimuli/T_ambi40.png","朋友","Image","朋友","Match","j","false","Formal",""
"","","","","","psychophysics","92","203544","0.0-8.0-0.0-0.32","null","","null","","","","","","","","","","","","","key","null","18.191760563380356","720","446","3_Stimuli/C_ambi40.png","他人","Image","自我","Mismatch","f","false","Formal",""
"","","","","","psychophysics","93","206253","0.0-8.0-0.0-0.33","null","","null","","","","","","","","","","","","","key","null","16.66599999999997","720","446","3_Stimuli/C_ambi40.png","自我","Image","自我","Match","j","false","Formal",""
"","","","","","psychophysics","94","208958","0.0-8.0-0.0-0.34","null","","null","","","","","","","","","","","","","key","null","16.66763354037268","720","446","3_Stimuli/C_ambi40.png","自我","Word","自我","Match","j","false","Formal",""
"","","","","","psychophysics","95","211661","0.0-8.0-0.0-0.35","null","","null","","","","","","","","","","","","","key","null","16.665999999999954","720","446","3_Stimuli/C_ambi40.png","他人","Word","自我","Mismatch","f","false","Formal",""
"","","","","","psychophysics","96","214365","0.0-8.0-0.0-0.36","null","","null","","","","","","","","","","","","","key","null","16.66599999999997","720","446","3_Stimuli/T_ambi40.png","他人","Image","朋友","Mismatch","f","false","Formal",""
"","","","","","psychophysics","97","217067","0.0-8.0-0.0-0.37","null","","null","","","","","","","","","","","","","key","null","16.66599999999997","720","446","3_Stimuli/T_ambi40.png","朋友","Image","朋友","Match","j","false","Formal",""
"","","","","","psychophysics","98","219769","0.0-8.0-0.0-0.38","null","","null","","","","","","","","","","","","","key","null","16.667627329192623","720","446","3_Stimuli/C_ambi40.png","自我","Word","自我","Match","j","false","Formal",""
"","","","","","psychophysics","99","222472","0.0-8.0-0.0-0.39","null","","null","","","","","","","","","","","","","key","null","16.66599999999997","720","446","3_Stimuli/T_ambi40.png","朋友","Word","朋友","Match","j","false","Formal",""
"","","","","","psychophysics","100","225176","0.0-8.0-0.0-0.40","null","","null","","","","","","","","","","","","","key","null","16.66599999999997","720","446","3_Stimuli/S_ambi40.png","自我","Word","他人","Mismatch","f","false","Formal",""
"","","","","","psychophysics","101","227878","0.0-8.0-0.0-0.41","null","","null","","","","","","","","","","","","","key","null","16.66599999999997","720","446","3_Stimuli/C_ambi40.png","朋友","Image","自我","Mismatch","f","false","Formal",""
"","","","","","psychophysics","102","230587","0.0-8.0-0.0-0.42","null","","null","","","","","","","","","","","","","key","null","16.66763354037268","720","446","3_Stimuli/S_ambi40.png","他人","Image","他人","Match","j","false","Formal",""
"","","","","","psychophysics","103","233289","0.0-8.0-0.0-0.43","null","","null","","","","","","","","","","","","","key","null","16.66599999999997","720","446","3_Stimuli/T_ambi40.png","自我","Image","朋友","Mismatch","f","false","Formal",""
"","","","","","psychophysics","104","235993","0.0-8.0-0.0-0.44","null","","null","","","","","","","","","","","","","key","null","16.66599999999997","720","446","3_Stimuli/S_ambi40.png","朋友","Word","他人","Mismatch","f","false","Formal",""
"","","","","","psychophysics","105","238696","0.0-8.0-0.0-0.45","null","","null","","","","","","","","","","","","","key","null","16.66599999999997","720","446","3_Stimuli/C_ambi40.png","自我","Image","自我","Match","j","false","Formal",""
"","","","","","psychophysics","106","241399","0.0-8.0-0.0-0.46","null","","null","","","","","","","","","","","","","key","null","16.66599999999997","720","446","3_Stimuli/S_ambi40.png","他人","Word","他人","Match","j","false","Formal",""
"","","","","","psychophysics","107","244103","0.0-8.0-0.0-0.47","null","","null","","","","","","","","","","","","","key","null","16.66600000000015","720","446","3_Stimuli/T_ambi40.png","自我","Word","朋友","Mismatch","f","false","Formal",""
"","","","","","psychophysics","108","246808","0.0-8.0-0.0-0.48","null","","null","","","","","","","","","","","","","key","null","16.665999999999954","720","446","3_Stimuli/S_ambi40.png","他人","Word","他人","Match","j","false","Formal",""
"","","","","","psychophysics","109","249510","0.0-8.0-0.0-0.49","null","","null","","","","","","","","","","","","","key","null","16.66763354037268","720","446","3_Stimuli/C_ambi40.png","朋友","Image","自我","Mismatch","f","false","Formal",""
"","","","","","psychophysics","110","252212","0.0-8.0-0.0-0.50","null","","null","","","","","","","","","","","","","key","null","16.66599999999997","720","446","3_Stimuli/C_ambi40.png","朋友","Word","自我","Mismatch","f","false","Formal",""
"","","","","","psychophysics","111","254915","0.0-8.0-0.0-0.51","null","","null","","","","","","","","","","","","","key","null","16.66600000000015","720","446","3_Stimuli/T_ambi40.png","朋友","Image","朋友","Match","j","false","Formal",""
"","","","","","psychophysics","112","257618","0.0-8.0-0.0-0.52","null","","null","","","","","","","","","","","","","key","null","16.66599999999997","720","446","3_Stimuli/T_ambi40.png","自我","Image","朋友","Mismatch","f","false","Formal",""
"","","","","","psychophysics","113","260321","0.0-8.0-0.0-0.53","null","","null","","","","","","","","","","","","","key","null","16.66762732919244","720","446","3_Stimuli/S_ambi40.png","朋友","Image","他人","Mismatch","f","false","Formal",""
"","","","","","psychophysics","114","263026","0.0-8.0-0.0-0.54","null","","null","","","","","","","","","","","","","key","null","16.66599999999997","720","446","3_Stimuli/T_ambi40.png","自我","Word","朋友","Mismatch","f","false","Formal",""
"","","","","","psychophysics","115","265730","0.0-8.0-0.0-0.55","null","","null","","","","","","","","","","","","","key","null","16.66600000000015","720","446","3_Stimuli/S_ambi40.png","他人","Image","他人","Match","j","false","Formal",""
"","","","","","psychophysics","116","268440","0.0-8.0-0.0-0.56","null","","null","","","","","","","","","","","","","key","null","16.66600000000015","720","446","3_Stimuli/T_ambi40.png","朋友","Word","朋友","Match","j","false","Formal",""
"","","","","","psychophysics","117","271143","0.0-8.0-0.0-0.57","null","","null","","","","","","","","","","","","","key","null","16.66763354037268","720","446","3_Stimuli/T_ambi40.png","他人","Word","朋友","Mismatch","f","false","Formal",""
"","","","","","psychophysics","118","273847","0.0-8.0-0.0-0.58","null","","null","","","","","","","","","","","","","key","null","16.66600000000015","720","446","3_Stimuli/C_ambi40.png","他人","Image","自我","Mismatch","f","false","Formal",""
"","","","","","psychophysics","119","276554","0.0-8.0-0.0-0.59","null","","null","","","","","","","","","","","","","key","null","16.66600000000015","720","446","3_Stimuli/S_ambi40.png","自我","Word","他人","Mismatch","f","false","Formal",""
"","","","","","psychophysics","120","279256","0.0-8.0-0.0-0.60","null","","null","","","","","","","","","","","","","key","null","16.66762732919226","720","446","3_Stimuli/T_ambi40.png","朋友","Image","朋友","Match","j","false","Formal",""
"","","","","","psychophysics","121","281961","0.0-8.0-0.0-0.61","null","","null","","","","","","","","","","","","","key","null","16.66600000000015","720","446","3_Stimuli/S_ambi40.png","他人","Word","他人","Match","j","false","Formal",""
"","","","","","psychophysics","122","284664","0.0-8.0-0.0-0.62","null","","null","","","","","","","","","","","","","key","null","16.665999999999787","720","446","3_Stimuli/C_ambi40.png","自我","Image","自我","Match","j","false","Formal",""
"","","","","","psychophysics","123","287367","0.0-8.0-0.0-0.63","null","","null","","","","","","","","","","","","","key","null","16.665999999999787","720","446","3_Stimuli/T_ambi40.png","他人","Image","朋友","Mismatch","f","false","Formal",""
"","","","","","psychophysics","124","290072","0.0-8.0-0.0-0.64","null","","null","","","","","","","","","","","","","key","null","16.66763354037268","720","446","3_Stimuli/C_ambi40.png","自我","Image","自我","Match","j","false","Formal",""
"","","","","","psychophysics","125","292775","0.0-8.0-0.0-0.65","null","","null","","","","","","","","","","","","","key","null","16.665999999999954","720","446","3_Stimuli/C_ambi40.png","自我","Word","自我","Match","j","false","Formal",""
"","","","","","psychophysics","126","295477","0.0-8.0-0.0-0.66","null","","null","","","","","","","","","","","","","key","null","16.66600000000015","720","446","3_Stimuli/C_ambi40.png","自我","Word","自我","Match","j","false","Formal",""
"","","","","","psychophysics","127","298180","0.0-8.0-0.0-0.67","null","","null","","","","","","","","","","","","","key","null","16.66600000000015","720","446","3_Stimuli/S_ambi40.png","朋友","Word","他人","Mismatch","f","false","Formal",""
"","","","","","psychophysics","128","300884","0.0-8.0-0.0-0.68","null","","null","","","","","","","","","","","","","key","null","16.667627329192623","720","446","3_Stimuli/T_ambi40.png","朋友","Word","朋友","Match","j","false","Formal",""
"","","","","","psychophysics","129","303590","0.0-8.0-0.0-0.69","null","","null","","","","","","","","","","","","","key","null","16.665999999999787","720","446","3_Stimuli/S_ambi40.png","他人","Image","他人","Match","j","false","Formal",""
"","","","","","psychophysics","130","306293","0.0-8.0-0.0-0.70","null","","null","","","","","","","","","","","","","key","null","16.66600000000015","720","446","3_Stimuli/C_ambi40.png","他人","Word","自我","Mismatch","f","false","Formal",""
"","","","","","psychophysics","131","308995","0.0-8.0-0.0-0.71","null","","null","","","","","","","","","","","","","key","null","16.667627329192623","720","446","3_Stimuli/S_ambi40.png","自我","Image","他人","Mismatch","f","false","Formal",""
"","","","","","psychophysics","132","311701","0.0-8.0-0.0-0.72","null","","null","","","","","","","","","","","","","key","null","16.665999999999787","720","446","3_Stimuli/C_ambi40.png","朋友","Word","自我","Mismatch","f","false","Formal",""
"","","","","","psychophysics","133","314404","0.0-8.0-0.0-0.73","null","","null","","","","","","","","","","","","","key","null","16.665999999999787","720","446","3_Stimuli/T_ambi40.png","自我","Image","朋友","Mismatch","f","false","Formal",""
"","","","","","psychophysics","134","317105","0.0-8.0-0.0-0.74","null","","null","","","","","","","","","","","","","key","null","16.66600000000015","720","446","3_Stimuli/S_ambi40.png","朋友","Word","他人","Mismatch","f","false","Formal",""
"","","","","","psychophysics","135","319808","0.0-8.0-0.0-0.75","null","","null","","","","","","","","","","","","","key","null","16.772471698113048","720","446","3_Stimuli/T_ambi40.png","他人","Image","朋友","Mismatch","f","false","Formal",""
"","","","","","psychophysics","136","322511","0.0-8.0-0.0-0.76","null","","null","","","","","","","","","","","","","key","null","16.66600000000015","720","446","3_Stimuli/S_ambi40.png","他人","Image","他人","Match","j","false","Formal",""
"","","","","","psychophysics","137","325217","0.0-8.0-0.0-0.77","null","","null","","","","","","","","","","","","","key","null","16.66600000000015","720","446","3_Stimuli/S_ambi40.png","他人","Word","他人","Match","j","false","Formal",""
"","","","","","psychophysics","138","327922","0.0-8.0-0.0-0.78","null","","null","","","","","","","","","","","","","key","null","16.66600000000015","720","446","3_Stimuli/T_ambi40.png","朋友","Word","朋友","Match","j","false","Formal",""
"","","","","","psychophysics","139","330625","0.0-8.0-0.0-0.79","null","","null","","","","","","","","","","","","","key","null","16.667627329192623","720","446","3_Stimuli/S_ambi40.png","自我","Image","他人","Mismatch","f","false","Formal",""
"","","","","","psychophysics","140","333330","0.0-8.0-0.0-0.80","null","","null","","","","","","","","","","","","","key","null","16.66600000000015","720","446","3_Stimuli/T_ambi40.png","他人","Word","朋友","Mismatch","f","false","Formal",""
"","","","","","psychophysics","141","336032","0.0-8.0-0.0-0.81","null","","null","","","","","","","","","","","","","key","null","16.665999999999787","720","446","3_Stimuli/T_ambi40.png","自我","Word","朋友","Mismatch","f","false","Formal",""
"","","","","","psychophysics","142","338734","0.0-8.0-0.0-0.82","null","","null","","","","","","","","","","","","","key","null","16.875635220125574","720","446","3_Stimuli/S_ambi40.png","他人","Image","他人","Match","j","false","Formal",""
"","","","","","psychophysics","143","341440","0.0-8.0-0.0-0.83","null","","null","","","","","","","","","","","","","key","null","16.66763354037268","720","446","3_Stimuli/C_ambi40.png","自我","Word","自我","Match","j","false","Formal",""
"","","","","","psychophysics","144","344142","0.0-8.0-0.0-0.84","null","","null","","","","","","","","","","","","","key","null","16.665999999999954","720","446","3_Stimuli/S_ambi40.png","朋友","Image","他人","Mismatch","f","false","Formal",""
"","","","","","psychophysics","145","346845","0.0-8.0-0.0-0.85","null","","null","","","","","","","","","","","","","key","null","16.66600000000015","720","446","3_Stimuli/S_ambi40.png","他人","Word","他人","Match","j","false","Formal",""
"","","","","","psychophysics","146","349549","0.0-8.0-0.0-0.86","null","","null","","","","","","","","","","","","","key","null","16.667627329192623","720","446","3_Stimuli/T_ambi40.png","朋友","Word","朋友","Match","j","false","Formal",""
"","","","","","psychophysics","147","352253","0.0-8.0-0.0-0.87","null","","null","","","","","","","","","","","","","key","null","16.66600000000015","720","446","3_Stimuli/C_ambi40.png","朋友","Image","自我","Mismatch","f","false","Formal",""
"","","","","","psychophysics","148","354958","0.0-8.0-0.0-0.88","null","","null","","","","","","","","","","","","","key","null","16.77016249999979","720","446","3_Stimuli/T_ambi40.png","朋友","Image","朋友","Match","j","false","Formal",""
"","","","","","psychophysics","149","357661","0.0-8.0-0.0-0.89","null","","null","","","","","","","","","","","","","key","null","16.66600000000015","720","446","3_Stimuli/C_ambi40.png","自我","Image","自我","Match","j","false","Formal",""
"","","","","","psychophysics","150","360365","0.0-8.0-0.0-0.90","null","","null","","","","","","","","","","","","","key","null","16.66763354037268","720","446","3_Stimuli/S_ambi40.png","自我","Word","他人","Mismatch","f","false","Formal",""
"","","","","","psychophysics","151","363070","0.0-8.0-0.0-0.91","null","","null","","","","","","","","","","","","","key","null","16.665999999999787","720","446","3_Stimuli/C_ambi40.png","他人","Image","自我","Mismatch","f","false","Formal",""
"","","","","","psychophysics","152","365774","0.0-8.0-0.0-0.92","null","","null","","","","","","","","","","","","","key","null","16.66600000000015","720","446","3_Stimuli/T_ambi40.png","朋友","Image","朋友","Match","j","false","Formal",""
"","","","","","psychophysics","153","368483","0.0-8.0-0.0-0.93","null","","null","","","","","","","","","","","","","key","null","16.665999999999787","720","446","3_Stimuli/C_ambi40.png","自我","Word","自我","Match","j","false","Formal",""
"","","","","","psychophysics","154","371187","0.0-8.0-0.0-0.94","null","","null","","","","","","","","","","","","","key","null","16.667627329192623","720","446","3_Stimuli/C_ambi40.png","他人","Word","自我","Mismatch","f","false","Formal",""
"","","","","","psychophysics","155","373893","0.0-8.0-0.0-0.95","null","","null","","","","","","","","","","","","","key","null","16.665999999999787","720","446","3_Stimuli/C_ambi40.png","自我","Image","自我","Match","j","false","Formal",""
"","","","","","psychophysics","156","376597","0.0-8.0-0.0-0.96","null","","null","","","","","","","","","","","","","key","null","16.665999999999787","720","446","3_Stimuli/T_ambi40.png","朋友","Image","朋友","Match","j","false","Formal",""
"","","","","","psychophysics","157","379304","0.0-8.0-0.0-0.97","null","","null","","","","","","","","","","","","","key","null","16.66763354037268","720","446","3_Stimuli/C_ambi40.png","朋友","Word","自我","Mismatch","f","false","Formal",""
"","","","","","psychophysics","158","382007","0.0-8.0-0.0-0.98","null","","null","","","","","","","","","","","","","key","null","16.665999999999986","720","446","3_Stimuli/S_ambi40.png","他人","Word","他人","Match","j","false","Formal",""
"","","","","","psychophysics","159","384711","0.0-8.0-0.0-0.99","null","","null","","","","","","","","","","","","","key","null","16.66600000000015","720","446","3_Stimuli/S_ambi40.png","自我","Image","他人","Mismatch","f","false","Formal",""
"","","","","","psychophysics","160","387414","0.0-8.0-0.0-0.100","null","","null","","","","","","","","","","","","","key","null","16.66600000000015","720","446","3_Stimuli/S_ambi40.png","他人","Word","他人","Match","j","false","Formal",""
"","","","","","psychophysics","161","390118","0.0-8.0-0.0-0.101","null","","null","","","","","","","","","","","","","key","null","16.667627329192623","720","446","3_Stimuli/C_ambi40.png","自我","Image","自我","Match","j","false","Formal",""
"","","","","","psychophysics","162","392823","0.0-8.0-0.0-0.102","null","","null","","","","","","","","","","","","","key","null","16.665999999999787","720","446","3_Stimuli/S_ambi40.png","他人","Image","他人","Match","j","false","Formal",""
"","","","","","psychophysics","163","395527","0.0-8.0-0.0-0.103","null","","null","","","","","","","","","","","","","key","null","16.66600000000015","720","446","3_Stimuli/C_ambi40.png","朋友","Image","自我","Mismatch","f","false","Formal",""
"","","","","","psychophysics","164","398229","0.0-8.0-0.0-0.104","null","","null","","","","","","","","","","","","","key","null","16.665999999999787","720","446","3_Stimuli/T_ambi40.png","自我","Image","朋友","Mismatch","f","false","Formal",""
"","","","","","psychophysics","165","400934","0.0-8.0-0.0-0.105","null","","null","","","","","","","","","","","","","key","null","16.771806250000008","720","446","3_Stimuli/S_ambi40.png","朋友","Word","他人","Mismatch","f","false","Formal",""
"","","","","","psychophysics","166","403638","0.0-8.0-0.0-0.106","null","","null","","","","","","","","","","","","","key","null","16.66600000000015","720","446","3_Stimuli/T_ambi40.png","朋友","Word","朋友","Match","j","false","Formal",""
"","","","","","psychophysics","167","406340","0.0-8.0-0.0-0.107","null","","null","","","","","","","","","","","","","key","null","16.665999999999787","720","446","3_Stimuli/C_ambi40.png","他人","Word","自我","Mismatch","f","false","Formal",""
"","","","","","psychophysics","168","409043","0.0-8.0-0.0-0.108","null","","null","","","","","","","","","","","","","key","null","16.982443037974836","720","446","3_Stimuli/T_ambi40.png","他人","Word","朋友","Mismatch","f","false","Formal",""
"","","","","","psychophysics","169","412674","0.0-8.0-0.0-0.109","null","","null","","","","","","","","","","","","","key","null","19.31555555555563","720","446","3_Stimuli/C_ambi40.png","自我","Word","自我","Match","j","false","Formal",""
"","","","","","psychophysics","170","415675","0.0-8.0-0.0-0.110","null","","null","","","","","","","","","","","","","key","null","NaN","720","446","3_Stimuli/C_ambi40.png","自我","Word","自我","Match","j","false","Formal",""
"","","","","","psychophysics","171","418387","0.0-8.0-0.0-0.111","null","","null","","","","","","","","","","","","","key","null","16.66599999999947","720","446","3_Stimuli/S_ambi40.png","朋友","Image","他人","Mismatch","f","false","Formal",""
"","","","","","psychophysics","172","421089","0.0-8.0-0.0-0.112","null","","null","","","","","","","","","","","","","key","null","16.667633540372318","720","446","3_Stimuli/C_ambi40.png","他人","Image","自我","Mismatch","f","false","Formal",""
"","","","","","psychophysics","173","423792","0.0-8.0-0.0-0.113","null","","null","","","","","","","","","","","","","key","null","16.66600000000015","720","446","3_Stimuli/T_ambi40.png","自我","Word","朋友","Mismatch","f","false","Formal",""
"","","","","","psychophysics","174","426673","0.0-8.0-0.0-0.114","null","","null","","","","","","","","","","","","","key","null","16.666000000003258","720","446","3_Stimuli/T_ambi40.png","他人","Image","朋友","Mismatch","f","false","Formal",""
"","","","","","psychophysics","175","429673","0.0-8.0-0.0-0.115","null","","null","","","","","","","","","","","","","key","null","NaN","720","446","3_Stimuli/T_ambi40.png","朋友","Image","朋友","Match","j","false","Formal",""
"","","","","","psychophysics","176","432670","0.0-8.0-0.0-0.116","null","","null","","","","","","","","","","","","","key","null","NaN","720","446","3_Stimuli/C_ambi40.png","自我","Image","自我","Match","j","false","Formal",""
"","","","","","psychophysics","177","435673","0.0-8.0-0.0-0.117","null","","null","","","","","","","","","","","","","key","null","NaN","720","446","3_Stimuli/T_ambi40.png","朋友","Word","朋友","Match","j","false","Formal",""
"","","","","","psychophysics","178","438673","0.0-8.0-0.0-0.118","null","","null","","","","","","","","","","","","","key","null","NaN","720","446","3_Stimuli/S_ambi40.png","他人","Image","他人","Match","j","false","Formal",""
"","","","","","psychophysics","179","441674","0.0-8.0-0.0-0.119","null","","null","","","","","","","","","","","","","key","null","NaN","720","446","3_Stimuli/S_ambi40.png","自我","Word","他人","Mismatch","f","false","Formal",""
"","","","","","html-keyboard-response","180","1655910","0.0-8.0-1.0","1214043","<style>.context{color:white; font-size: 35px; line-height:40px}</style>                        <div><p class='context'>您正确回答了2% 的试次。</p><p class='context'>您的平均反应时为556毫秒。</p><p> <div style = 'color: green'><按任意键进入休息></div></p>","f","","","","","","","","","","","","","","","","","","","","","","","","","",""
"","","","","","html-button-response","181","1656930","0.0-8.0-2.0","986","
                  <p>您当前还剩余5组实验</p>
                  <p>现在是休息时间，当您结束休息后，您可以点击 结束休息 按钮 继续</p>
                  <p>建议休息时间还剩余<span id=""iii"">60</span>秒</p>","0","","","","","","","","","","","","","","","","","","","","","","","","","",""
"","","","","","psychophysics","182","1659638","0.0-8.0-0.1-0.120","null","","null","","","","","","","","","","","","","key","null","16.66600000000015","720","446","3_Stimuli/S_ambi40.png","他人","Image","他人","Match","j","false","Formal",""
"","","","","","psychophysics","183","1662856","0.0-8.0-0.1-0.121","null","","null","","","","","","","","","","","","","key","null","16.97179816513741","720","446","3_Stimuli/T_ambi40.png","朋友","Word","朋友","Match","j","false","Formal",""
"","","","","","psychophysics","184","1665858","0.0-8.0-0.1-0.122","null","","null","","","","","","","","","","","","","key","null","NaN","720","446","3_Stimuli/S_ambi40.png","自我","Image","他人","Mismatch","f","false","Formal",""
"","","","","","psychophysics","185","1668856","0.0-8.0-0.1-0.123","null","","null","","","","","","","","","","","","","key","null","NaN","720","446","3_Stimuli/T_ambi40.png","朋友","Image","朋友","Match","j","false","Formal",""
"","","","","","psychophysics","186","1671855","0.0-8.0-0.1-0.124","null","","null","","","","","","","","","","","","","key","null","NaN","720","446","3_Stimuli/S_ambi40.png","朋友","Word","他人","Mismatch","f","false","Formal",""
"","","","","","psychophysics","187","1674856","0.0-8.0-0.1-0.125","null","","null","","","","","","","","","","","","","key","null","NaN","720","446","3_Stimuli/C_ambi40.png","自我","Word","自我","Match","j","false","Formal",""
"","","","","","psychophysics","188","1677858","0.0-8.0-0.1-0.126","null","","null","","","","","","","","","","","","","key","null","NaN","720","446","3_Stimuli/C_ambi40.png","他人","Image","自我","Mismatch","f","false","Formal",""
"","","","","","psychophysics","189","1680858","0.0-8.0-0.1-0.127","null","","null","","","","","","","","","","","","","key","null","NaN","720","446","3_Stimuli/C_ambi40.png","朋友","Word","自我","Mismatch","f","false","Formal",""
"","","","","","psychophysics","190","1683858","0.0-8.0-0.1-0.128","null","","null","","","","","","","","","","","","","key","null","NaN","720","446","3_Stimuli/S_ambi40.png","朋友","Image","他人","Mismatch","f","false","Formal",""
"","","","","","psychophysics","191","1686858","0.0-8.0-0.1-0.129","null","","null","","","","","","","","","","","","","key","null","NaN","720","446","3_Stimuli/T_ambi40.png","他人","Image","朋友","Mismatch","f","false","Formal",""
"","","","","","psychophysics","192","1689857","0.0-8.0-0.1-0.130","null","","null","","","","","","","","","","","","","key","null","NaN","720","446","3_Stimuli/C_ambi40.png","自我","Word","自我","Match","j","false","Formal",""
"","","","","","psychophysics","193","1692857","0.0-8.0-0.1-0.131","null","","null","","","","","","","","","","","","","key","null","NaN","720","446","3_Stimuli/C_ambi40.png","他人","Word","自我","Mismatch","f","false","Formal",""
"","","","","","psychophysics","194","1695859","0.0-8.0-0.1-0.132","null","","null","","","","","","","","","","","","","key","null","NaN","720","446","3_Stimuli/T_ambi40.png","他人","Word","朋友","Mismatch","f","false","Formal",""
"","","","","","psychophysics","195","1698855","0.0-8.0-0.1-0.133","null","","null","","","","","","","","","","","","","key","null","NaN","720","446","3_Stimuli/T_ambi40.png","自我","Image","朋友","Mismatch","f","false","Formal",""
"","","","","","psychophysics","196","1701859","0.0-8.0-0.1-0.134","null","","null","","","","","","","","","","","","","key","null","NaN","720","446","3_Stimuli/T_ambi40.png","自我","Word","朋友","Mismatch","f","false","Formal",""
"","","","","","psychophysics","197","1704855","0.0-8.0-0.1-0.135","null","","null","","","","","","","","","","","","","key","null","NaN","720","446","3_Stimuli/S_ambi40.png","自我","Word","他人","Mismatch","f","false","Formal",""
"","","","","","psychophysics","198","1707856","0.0-8.0-0.1-0.136","null","","null","","","","","","","","","","","","","key","null","NaN","720","446","3_Stimuli/C_ambi40.png","自我","Image","自我","Match","j","false","Formal",""
"","","","","","psychophysics","199","1710858","0.0-8.0-0.1-0.137","null","","null","","","","","","","","","","","","","key","null","NaN","720","446","3_Stimuli/T_ambi40.png","朋友","Word","朋友","Match","j","false","Formal",""
"","","","","","psychophysics","200","1713858","0.0-8.0-0.1-0.138","null","","null","","","","","","","","","","","","","key","null","NaN","720","446","3_Stimuli/S_ambi40.png","他人","Word","他人","Match","j","false","Formal",""
"","","","","","psychophysics","201","1716860","0.0-8.0-0.1-0.139","null","","null","","","","","","","","","","","","","key","null","NaN","720","446","3_Stimuli/C_ambi40.png","自我","Image","自我","Match","j","false","Formal",""
"","","","","","psychophysics","202","1719859","0.0-8.0-0.1-0.140","null","","null","","","","","","","","","","","","","key","null","17.354213333331668","720","446","3_Stimuli/C_ambi40.png","朋友","Image","自我","Mismatch","f","false","Formal",""
"","","","","","psychophysics","203","1722858","0.0-8.0-0.1-0.141","null","","null","","","","","","","","","","","","","key","null","NaN","720","446","3_Stimuli/S_ambi40.png","他人","Word","他人","Match","j","false","Formal",""
"","","","","","psychophysics","204","1725857","0.0-8.0-0.1-0.142","null","","null","","","","","","","","","","","","","key","null","NaN","720","446","3_Stimuli/S_ambi40.png","他人","Image","他人","Match","j","false","Formal",""
"","","","","","psychophysics","205","1728859","0.0-8.0-0.1-0.143","null","","null","","","","","","","","","","","","","key","null","NaN","720","446","3_Stimuli/T_ambi40.png","朋友","Image","朋友","Match","j","false","Formal",""
"","","","","","psychophysics","206","1731857","0.0-8.0-0.1-0.144","null","","null","","","","","","","","","","","","","key","null","NaN","720","446","3_Stimuli/C_ambi40.png","自我","Word","自我","Match","j","false","Formal",""
"","","","","","psychophysics","207","1734858","0.0-8.0-0.1-0.145","null","","null","","","","","","","","","","","","","key","null","NaN","720","446","3_Stimuli/T_ambi40.png","朋友","Word","朋友","Match","j","false","Formal",""
"","","","","","psychophysics","208","1737858","0.0-8.0-0.1-0.146","null","","null","","","","","","","","","","","","","key","null","NaN","720","446","3_Stimuli/S_ambi40.png","他人","Image","他人","Match","j","false","Formal",""
"","","","","","psychophysics","209","1740856","0.0-8.0-0.1-0.147","null","","null","","","","","","","","","","","","","key","null","NaN","720","446","3_Stimuli/T_ambi40.png","朋友","Image","朋友","Match","j","false","Formal",""
"","","","","","psychophysics","210","1743854","0.0-8.0-0.1-0.148","null","","null","","","","","","","","","","","","","key","null","NaN","720","446","3_Stimuli/T_ambi40.png","自我","Image","朋友","Mismatch","f","false","Formal",""
"","","","","","psychophysics","211","1746856","0.0-8.0-0.1-0.149","null","","null","","","","","","","","","","","","","key","null","NaN","720","446","3_Stimuli/C_ambi40.png","自我","Word","自我","Match","j","false","Formal",""
"","","","","","psychophysics","212","1749858","0.0-8.0-0.1-0.150","null","","null","","","","","","","","","","","","","key","null","NaN","720","446","3_Stimuli/C_ambi40.png","朋友","Word","自我","Mismatch","f","false","Formal",""
"","","","","","psychophysics","213","1752859","0.0-8.0-0.1-0.151","null","","null","","","","","","","","","","","","","key","null","NaN","720","446","3_Stimuli/S_ambi40.png","自我","Image","他人","Mismatch","f","false","Formal",""
"","","","","","psychophysics","214","1755858","0.0-8.0-0.1-0.152","null","","null","","","","","","","","","","","","","key","null","NaN","720","446","3_Stimuli/C_ambi40.png","朋友","Image","自我","Mismatch","f","false","Formal",""
"","","","","","psychophysics","215","1758857","0.0-8.0-0.1-0.153","null","","null","","","","","","","","","","","","","key","null","NaN","720","446","3_Stimuli/T_ambi40.png","朋友","Word","朋友","Match","j","false","Formal",""
"","","","","","psychophysics","216","1761856","0.0-8.0-0.1-0.154","null","","null","","","","","","","","","","","","","key","null","NaN","720","446","3_Stimuli/C_ambi40.png","自我","Image","自我","Match","j","false","Formal",""
"","","","","","psychophysics","217","1764856","0.0-8.0-0.1-0.155","null","","null","","","","","","","","","","","","","key","null","NaN","720","446","3_Stimuli/C_ambi40.png","自我","Image","自我","Match","j","false","Formal",""
"","","","","","psychophysics","218","1767858","0.0-8.0-0.1-0.156","null","","null","","","","","","","","","","","","","key","null","NaN","720","446","3_Stimuli/C_ambi40.png","他人","Image","自我","Mismatch","f","false","Formal",""
"","","","","","psychophysics","219","1770856","0.0-8.0-0.1-0.157","null","","null","","","","","","","","","","","","","key","null","NaN","720","446","3_Stimuli/S_ambi40.png","朋友","Image","他人","Mismatch","f","false","Formal",""
"","","","","","psychophysics","220","1773858","0.0-8.0-0.1-0.158","null","","null","","","","","","","","","","","","","key","null","NaN","720","446","3_Stimuli/T_ambi40.png","朋友","Image","朋友","Match","j","false","Formal",""
"","","","","","psychophysics","221","1776855","0.0-8.0-0.1-0.159","null","","null","","","","","","","","","","","","","key","null","NaN","720","446","3_Stimuli/C_ambi40.png","他人","Word","自我","Mismatch","f","false","Formal",""
"","","","","","psychophysics","222","1785855","0.0-8.0-0.1-0.160","null","","null","","","","","","","","","","","","","key","null","NaN","720","446","3_Stimuli/S_ambi40.png","朋友","Word","他人","Mismatch","f","false","Formal",""
"","","","","","psychophysics","223","1845856","0.0-8.0-0.1-0.161","null","","null","","","","","","","","","","","","","key","null","NaN","720","446","3_Stimuli/T_ambi40.png","自我","Word","朋友","Mismatch","f","false","Formal",""
"","","","","","psychophysics","224","1905858","0.0-8.0-0.1-0.162","null","","null","","","","","","","","","","","","","key","null","NaN","720","446","3_Stimuli/S_ambi40.png","他人","Word","他人","Match","j","false","Formal",""
"","","","","","psychophysics","225","1922300","0.0-8.0-0.1-0.163","null","","null","","","","","","","","","","","","","key","null","NaN","720","446","3_Stimuli/T_ambi40.png","他人","Word","朋友","Mismatch","f","false","Formal",""
"","","","","","psychophysics","226","1925855","0.0-8.0-0.1-0.164","null","","null","","","","","","","","","","","","","key","null","17.273493150684484","720","446","3_Stimuli/S_ambi40.png","他人","Word","他人","Match","j","false","Formal",""
"","","","","","psychophysics","227","1928857","0.0-8.0-0.1-0.165","null","","null","","","","","","","","","","","","","key","null","NaN","720","446","3_Stimuli/T_ambi40.png","他人","Image","朋友","Mismatch","f","false","Formal",""
"","","","","","psychophysics","228","1931856","0.0-8.0-0.1-0.166","null","","null","","","","","","","","","","","","","key","null","NaN","720","446","3_Stimuli/S_ambi40.png","自我","Word","他人","Mismatch","f","false","Formal",""
"","","","","","psychophysics","229","1934857","0.0-8.0-0.1-0.167","null","","null","","","","","","","","","","","","","key","null","NaN","720","446","3_Stimuli/S_ambi40.png","他人","Image","他人","Match","j","false","Formal",""
"","","","","","psychophysics","230","1937857","0.0-8.0-0.1-0.168","null","","null","","","","","","","","","","","","","key","null","NaN","720","446","3_Stimuli/C_ambi40.png","自我","Image","自我","Match","j","false","Formal",""
"","","","","","psychophysics","231","1940854","0.0-8.0-0.1-0.169","null","","null","","","","","","","","","","","","","key","null","NaN","720","446","3_Stimuli/S_ambi40.png","他人","Word","他人","Match","j","false","Formal",""
"","","","","","psychophysics","232","1943856","0.0-8.0-0.1-0.170","null","","null","","","","","","","","","","","","","key","null","NaN","720","446","3_Stimuli/T_ambi40.png","朋友","Word","朋友","Match","j","false","Formal",""
"","","","","","psychophysics","233","1946854","0.0-8.0-0.1-0.171","null","","null","","","","","","","","","","","","","key","null","NaN","720","446","3_Stimuli/T_ambi40.png","自我","Word","朋友","Mismatch","f","false","Formal",""
"","","","","","psychophysics","234","1949857","0.0-8.0-0.1-0.172","null","","null","","","","","","","","","","","","","key","null","NaN","720","446","3_Stimuli/C_ambi40.png","自我","Image","自我","Match","j","false","Formal",""
"","","","","","psychophysics","235","1952856","0.0-8.0-0.1-0.173","null","","null","","","","","","","","","","","","","key","null","NaN","720","446","3_Stimuli/T_ambi40.png","朋友","Image","朋友","Match","j","false","Formal",""
"","","","","","psychophysics","236","1955854","0.0-8.0-0.1-0.174","null","","null","","","","","","","","","","","","","key","null","NaN","720","446","3_Stimuli/T_ambi40.png","朋友","Word","朋友","Match","j","false","Formal",""
"","","","","","psychophysics","237","1958852","0.0-8.0-0.1-0.175","null","","null","","","","","","","","","","","","","key","null","NaN","720","446","3_Stimuli/C_ambi40.png","朋友","Image","自我","Mismatch","f","false","Formal",""
"","","","","","psychophysics","238","1961851","0.0-8.0-0.1-0.176","null","","null","","","","","","","","","","","","","key","null","NaN","720","446","3_Stimuli/C_ambi40.png","自我","Word","自我","Match","j","false","Formal",""
"","","","","","psychophysics","239","1964851","0.0-8.0-0.1-0.177","null","","null","","","","","","","","","","","","","key","null","NaN","720","446","3_Stimuli/S_ambi40.png","自我","Word","他人","Mismatch","f","false","Formal",""
"","","","","","psychophysics","240","1967850","0.0-8.0-0.1-0.178","null","","null","","","","","","","","","","","","","key","null","NaN","720","446","3_Stimuli/T_ambi40.png","自我","Image","朋友","Mismatch","f","false","Formal",""
"","","","","","psychophysics","241","1970850","0.0-8.0-0.1-0.179","null","","null","","","","","","","","","","","","","key","null","NaN","720","446","3_Stimuli/S_ambi40.png","他人","Image","他人","Match","j","false","Formal",""
"","","","","","psychophysics","242","1973848","0.0-8.0-0.1-0.180","null","","null","","","","","","","","","","","","","key","null","NaN","720","446","3_Stimuli/T_ambi40.png","朋友","Image","朋友","Match","j","false","Formal",""
"","","","","","psychophysics","243","1976848","0.0-8.0-0.1-0.181","null","","null","","","","","","","","","","","","","key","null","NaN","720","446","3_Stimuli/T_ambi40.png","他人","Image","朋友","Mismatch","f","false","Formal",""
"","","","","","psychophysics","244","1979848","0.0-8.0-0.1-0.182","null","","null","","","","","","","","","","","","","key","null","NaN","720","446","3_Stimuli/S_ambi40.png","朋友","Word","他人","Mismatch","f","false","Formal",""
"","","","","","psychophysics","245","1982847","0.0-8.0-0.1-0.183","null","","null","","","","","","","","","","","","","key","null","NaN","720","446","3_Stimuli/S_ambi40.png","朋友","Image","他人","Mismatch","f","false","Formal",""
"","","","","","psychophysics","246","2025843","0.0-8.0-0.1-0.184","null","","null","","","","","","","","","","","","","key","null","NaN","720","446","3_Stimuli/C_ambi40.png","自我","Word","自我","Match","j","false","Formal",""
"","","","","","psychophysics","247","2085843","0.0-8.0-0.1-0.185","null","","null","","","","","","","","","","","","","key","null","NaN","720","446","3_Stimuli/C_ambi40.png","他人","Word","自我","Mismatch","f","false","Formal",""
"","","","","","psychophysics","248","2145838","0.0-8.0-0.1-0.186","null","","null","","","","","","","","","","","","","key","null","NaN","720","446","3_Stimuli/S_ambi40.png","自我","Image","他人","Mismatch","f","false","Formal",""
"","","","","","psychophysics","249","2205836","0.0-8.0-0.1-0.187","null","","null","","","","","","","","","","","","","key","null","NaN","720","446","3_Stimuli/C_ambi40.png","朋友","Word","自我","Mismatch","f","false","Formal",""
"","","","","","psychophysics","250","2265847","0.0-8.0-0.1-0.188","null","","null","","","","","","","","","","","","","key","null","NaN","720","446","3_Stimuli/C_ambi40.png","他人","Image","自我","Mismatch","f","false","Formal",""
"","","","","","psychophysics","251","2311399","0.0-8.0-0.1-0.189","null","","null","","","","","","","","","","","","","key","null","NaN","720","446","3_Stimuli/T_ambi40.png","他人","Word","朋友","Mismatch","f","false","Formal",""
"","","","","","psychophysics","252","2314112","0.0-8.0-0.1-0.190","null","","null","","","","","","","","","","","","","key","null","16.770162499998698","720","446","3_Stimuli/S_ambi40.png","他人","Word","他人","Match","j","false","Formal",""
"","","","","","psychophysics","253","2316834","0.0-8.0-0.1-0.191","null","","null","","","","","","","","","","","","","key","null","16.6660000000149","720","446","3_Stimuli/S_ambi40.png","他人","Image","他人","Match","j","false","Formal",""
"","","","","","psychophysics","254","2319835","0.0-8.0-0.1-0.192","null","","null","","","","","","","","","","","","","key","null","NaN","720","446","3_Stimuli/C_ambi40.png","他人","Word","自我","Mismatch","f","false","Formal",""
"","","","","","psychophysics","255","2322834","0.0-8.0-0.1-0.193","null","","null","","","","","","","","","","","","","key","null","NaN","720","446","3_Stimuli/C_ambi40.png","朋友","Image","自我","Mismatch","f","false","Formal",""
"","","","","","psychophysics","256","2325834","0.0-8.0-0.1-0.194","null","","null","","","","","","","","","","","","","key","null","NaN","720","446","3_Stimuli/T_ambi40.png","他人","Word","朋友","Mismatch","f","false","Formal",""
"","","","","","psychophysics","257","2328834","0.0-8.0-0.1-0.195","null","","null","","","","","","","","","","","","","key","null","NaN","720","446","3_Stimuli/C_ambi40.png","他人","Image","自我","Mismatch","f","false","Formal",""
"","","","","","psychophysics","258","2331834","0.0-8.0-0.1-0.196","null","","null","","","","","","","","","","","","","key","null","NaN","720","446","3_Stimuli/T_ambi40.png","自我","Word","朋友","Mismatch","f","false","Formal",""
"","","","","","psychophysics","259","2334834","0.0-8.0-0.1-0.197","null","","null","","","","","","","","","","","","","key","null","NaN","720","446","3_Stimuli/S_ambi40.png","自我","Image","他人","Mismatch","f","false","Formal",""
"","","","","","psychophysics","260","2337833","0.0-8.0-0.1-0.198","null","","null","","","","","","","","","","","","","key","null","NaN","720","446","3_Stimuli/C_ambi40.png","自我","Image","自我","Match","j","false","Formal",""
"","","","","","psychophysics","261","2340832","0.0-8.0-0.1-0.199","null","","null","","","","","","","","","","","","","key","null","NaN","720","446","3_Stimuli/T_ambi40.png","自我","Image","朋友","Mismatch","f","false","Formal",""
"","","","","","psychophysics","262","2343834","0.0-8.0-0.1-0.200","null","","null","","","","","","","","","","","","","key","null","NaN","720","446","3_Stimuli/T_ambi40.png","朋友","Word","朋友","Match","j","false","Formal",""
"","","","","","psychophysics","263","2346831","0.0-8.0-0.1-0.201","null","","null","","","","","","","","","","","","","key","null","NaN","720","446","3_Stimuli/C_ambi40.png","自我","Word","自我","Match","j","false","Formal",""
"","","","","","psychophysics","264","2349829","0.0-8.0-0.1-0.202","null","","null","","","","","","","","","","","","","key","null","NaN","720","446","3_Stimuli/S_ambi40.png","朋友","Word","他人","Mismatch","f","false","Formal",""
"","","","","","psychophysics","265","2352833","0.0-8.0-0.1-0.203","null","","null","","","","","","","","","","","","","key","null","NaN","720","446","3_Stimuli/S_ambi40.png","自我","Word","他人","Mismatch","f","false","Formal",""
"","","","","","psychophysics","266","2355833","0.0-8.0-0.1-0.204","null","","null","","","","","","","","","","","","","key","null","NaN","720","446","3_Stimuli/T_ambi40.png","朋友","Image","朋友","Match","j","false","Formal",""
"","","","","","psychophysics","267","2358834","0.0-8.0-0.1-0.205","null","","null","","","","","","","","","","","","","key","null","NaN","720","446","3_Stimuli/S_ambi40.png","朋友","Image","他人","Mismatch","f","false","Formal",""
"","","","","","psychophysics","268","2361834","0.0-8.0-0.1-0.206","null","","null","","","","","","","","","","","","","key","null","NaN","720","446","3_Stimuli/C_ambi40.png","朋友","Word","自我","Mismatch","f","false","Formal",""
"","","","","","psychophysics","269","2364833","0.0-8.0-0.1-0.207","null","","null","","","","","","","","","","","","","key","null","NaN","720","446","3_Stimuli/S_ambi40.png","他人","Image","他人","Match","j","false","Formal",""
"","","","","","psychophysics","270","2367836","0.0-8.0-0.1-0.208","null","","null","","","","","","","","","","","","","key","null","NaN","720","446","3_Stimuli/T_ambi40.png","他人","Image","朋友","Mismatch","f","false","Formal",""
"","","","","","psychophysics","271","2370833","0.0-8.0-0.1-0.209","null","","null","","","","","","","","","","","","","key","null","NaN","720","446","3_Stimuli/C_ambi40.png","自我","Image","自我","Match","j","false","Formal",""
"","","","","","psychophysics","272","2373832","0.0-8.0-0.1-0.210","null","","null","","","","","","","","","","","","","key","null","NaN","720","446","3_Stimuli/T_ambi40.png","朋友","Word","朋友","Match","j","false","Formal",""
"","","","","","psychophysics","273","2385875","0.0-8.0-0.1-0.211","null","","null","","","","","","","","","","","","","key","null","NaN","720","446","3_Stimuli/S_ambi40.png","他人","Word","他人","Match","j","false","Formal",""
"","","","","","psychophysics","274","2445836","0.0-8.0-0.1-0.212","null","","null","","","","","","","","","","","","","key","null","NaN","720","446","3_Stimuli/C_ambi40.png","自我","Word","自我","Match","j","false","Formal",""
"","","","","","psychophysics","275","2505826","0.0-8.0-0.1-0.213","null","","null","","","","","","","","","","","","","key","null","NaN","720","446","3_Stimuli/T_ambi40.png","朋友","Image","朋友","Match","j","false","Formal",""
"","","","","","psychophysics","276","2565826","0.0-8.0-0.1-0.214","null","","null","","","","","","","","","","","","","key","null","NaN","720","446","3_Stimuli/S_ambi40.png","他人","Word","他人","Match","j","false","Formal",""
"","","","","","psychophysics","277","2625824","0.0-8.0-0.1-0.215","null","","null","","","","","","","","","","","","","key","null","NaN","720","446","3_Stimuli/S_ambi40.png","他人","Image","他人","Match","j","false","Formal",""
"","","","","","psychophysics","278","2685819","0.0-8.0-0.1-0.216","null","","null","","","","","","","","","","","","","key","null","NaN","720","446","3_Stimuli/C_ambi40.png","他人","Image","自我","Mismatch","f","false","Formal",""
"","","","","","psychophysics","279","2742509","0.0-8.0-0.1-0.217","null","","null","","","","","","","","","","","","","key","null","NaN","720","446","3_Stimuli/S_ambi40.png","他人","Word","他人","Match","j","false","Formal",""
"","","","","","psychophysics","280","2745245","0.0-8.0-0.1-0.218","null","","null","","","","","","","","","","","","","key","null","17.09061146496979","720","446","3_Stimuli/S_ambi40.png","他人","Word","他人","Match","j","false","Formal",""
"","","","","","psychophysics","281","2748816","0.0-8.0-0.1-0.219","null","","null","","","","","","","","","","","","","key","null","16.66600000000283","720","446","3_Stimuli/S_ambi40.png","自我","Word","他人","Mismatch","f","false","Formal",""
"","","","","","psychophysics","282","2751816","0.0-8.0-0.1-0.220","null","","null","","","","","","","","","","","","","key","null","NaN","720","446","3_Stimuli/T_ambi40.png","朋友","Image","朋友","Match","j","false","Formal",""
"","","","","","psychophysics","283","2754816","0.0-8.0-0.1-0.221","null","","null","","","","","","","","","","","","","key","null","NaN","720","446","3_Stimuli/T_ambi40.png","朋友","Word","朋友","Match","j","false","Formal",""
"","","","","","psychophysics","284","2757816","0.0-8.0-0.1-0.222","null","","null","","","","","","","","","","","","","key","null","NaN","720","446","3_Stimuli/T_ambi40.png","他人","Word","朋友","Mismatch","f","false","Formal",""
"","","","","","psychophysics","285","2760818","0.0-8.0-0.1-0.223","null","","null","","","","","","","","","","","","","key","null","NaN","720","446","3_Stimuli/C_ambi40.png","自我","Image","自我","Match","j","false","Formal",""
"","","","","","psychophysics","286","2763815","0.0-8.0-0.1-0.224","null","","null","","","","","","","","","","","","","key","null","NaN","720","446","3_Stimuli/C_ambi40.png","自我","Word","自我","Match","j","false","Formal",""
"","","","","","psychophysics","287","2766816","0.0-8.0-0.1-0.225","null","","null","","","","","","","","","","","","","key","null","NaN","720","446","3_Stimuli/T_ambi40.png","自我","Image","朋友","Mismatch","f","false","Formal",""
"","","","","","psychophysics","288","2769817","0.0-8.0-0.1-0.226","null","","null","","","","","","","","","","","","","key","null","NaN","720","446","3_Stimuli/C_ambi40.png","他人","Word","自我","Mismatch","f","false","Formal",""
"","","","","","psychophysics","289","2772817","0.0-8.0-0.1-0.227","null","","null","","","","","","","","","","","","","key","null","NaN","720","446","3_Stimuli/S_ambi40.png","朋友","Image","他人","Mismatch","f","false","Formal",""
"","","","","","psychophysics","290","2775818","0.0-8.0-0.1-0.228","null","","null","","","","","","","","","","","","","key","null","NaN","720","446","3_Stimuli/C_ambi40.png","朋友","Image","自我","Mismatch","f","false","Formal",""
"","","","","","psychophysics","291","2778817","0.0-8.0-0.1-0.229","null","","null","","","","","","","","","","","","","key","null","NaN","720","446","3_Stimuli/T_ambi40.png","朋友","Image","朋友","Match","j","false","Formal",""
"","","","","","psychophysics","292","2781816","0.0-8.0-0.1-0.230","null","","null","","","","","","","","","","","","","key","null","NaN","720","446","3_Stimuli/C_ambi40.png","朋友","Word","自我","Mismatch","f","false","Formal",""
"","","","","","psychophysics","293","2784814","0.0-8.0-0.1-0.231","null","","null","","","","","","","","","","","","","key","null","NaN","720","446","3_Stimuli/S_ambi40.png","朋友","Word","他人","Mismatch","f","false","Formal",""
"","","","","","psychophysics","294","2787816","0.0-8.0-0.1-0.232","null","","null","","","","","","","","","","","","","key","null","NaN","720","446","3_Stimuli/C_ambi40.png","自我","Image","自我","Match","j","false","Formal",""
"","","","","","psychophysics","295","2790816","0.0-8.0-0.1-0.233","null","","null","","","","","","","","","","","","","key","null","NaN","720","446","3_Stimuli/S_ambi40.png","他人","Image","他人","Match","j","false","Formal",""
"","","","","","psychophysics","296","2793816","0.0-8.0-0.1-0.234","null","","null","","","","","","","","","","","","","key","null","NaN","720","446","3_Stimuli/C_ambi40.png","自我","Word","自我","Match","j","false","Formal",""
"","","","","","psychophysics","297","2796815","0.0-8.0-0.1-0.235","null","","null","","","","","","","","","","","","","key","null","NaN","720","446","3_Stimuli/T_ambi40.png","他人","Image","朋友","Mismatch","f","false","Formal",""
"","","","","","psychophysics","298","2799816","0.0-8.0-0.1-0.236","null","","null","","","","","","","","","","","","","key","null","NaN","720","446","3_Stimuli/S_ambi40.png","自我","Image","他人","Mismatch","f","false","Formal",""
"","","","","","psychophysics","299","2802814","0.0-8.0-0.1-0.237","null","","null","","","","","","","","","","","","","key","null","NaN","720","446","3_Stimuli/T_ambi40.png","朋友","Word","朋友","Match","j","false","Formal",""
"","","","","","psychophysics","300","2805817","0.0-8.0-0.1-0.238","null","","null","","","","","","","","","","","","","key","null","NaN","720","446","3_Stimuli/S_ambi40.png","他人","Image","他人","Match","j","false","Formal",""
"","","","","","psychophysics","301","2865815","0.0-8.0-0.1-0.239","null","","null","","","","","","","","","","","","","key","null","NaN","720","446","3_Stimuli/T_ambi40.png","自我","Word","朋友","Mismatch","f","false","Formal",""
"","","","","","html-keyboard-response","302","3892112","0.0-8.0-1.1","1026324","<style>.context{color:white; font-size: 35px; line-height:40px}</style>                        <div><p class='context'>您正确回答了0% 的试次。</p><p class='context'>您的平均反应时为NaN毫秒。</p><p> <div style = 'color: green'><按任意键进入休息></div></p>","f","","","","","","","","","","","","","","","","","","","","","","","","","",""
"","","","","","html-button-response","303","3893259","0.0-8.0-2.1","1130","
                  <p>您当前还剩余4组实验</p>
                  <p>现在是休息时间，当您结束休息后，您可以点击 结束休息 按钮 继续</p>
                  <p>建议休息时间还剩余<span id=""iii"">60</span>秒</p>","0","","","","","","","","","","","","","","","","","","","","","","","","","",""
"","","","","","psychophysics","304","3895972","0.0-8.0-0.2-0.240","null","","null","","","","","","","","","","","","","key","null","16.665999999998704","720","446","3_Stimuli/C_ambi40.png","自我","Image","自我","Match","j","false","Formal",""
"","","","","","psychophysics","305","3898773","0.0-8.0-0.2-0.241","null","","null","","","","","","","","","","","","","key","null","17.29490566037525","720","446","3_Stimuli/T_ambi40.png","朋友","Image","朋友","Match","j","false","Formal",""
"","","","","","psychophysics","306","3901775","0.0-8.0-0.2-0.242","null","","null","","","","","","","","","","","","","key","null","NaN","720","446","3_Stimuli/T_ambi40.png","自我","Word","朋友","Mismatch","f","false","Formal",""
"","","","","","psychophysics","307","3904777","0.0-8.0-0.2-0.243","null","","null","","","","","","","","","","","","","key","null","NaN","720","446","3_Stimuli/T_ambi40.png","他人","Word","朋友","Mismatch","f","false","Formal",""
"","","","","","psychophysics","308","3907777","0.0-8.0-0.2-0.244","null","","null","","","","","","","","","","","","","key","null","NaN","720","446","3_Stimuli/S_ambi40.png","自我","Image","他人","Mismatch","f","false","Formal",""
"","","","","","psychophysics","309","3910776","0.0-8.0-0.2-0.245","null","","null","","","","","","","","","","","","","key","null","NaN","720","446","3_Stimuli/C_ambi40.png","自我","Image","自我","Match","j","false","Formal",""
"","","","","","psychophysics","310","3913775","0.0-8.0-0.2-0.246","null","","null","","","","","","","","","","","","","key","null","NaN","720","446","3_Stimuli/S_ambi40.png","他人","Image","他人","Match","j","false","Formal",""
"","","","","","psychophysics","311","3916776","0.0-8.0-0.2-0.247","null","","null","","","","","","","","","","","","","key","null","NaN","720","446","3_Stimuli/C_ambi40.png","朋友","Word","自我","Mismatch","f","false","Formal",""
"","","","","","psychophysics","312","3919776","0.0-8.0-0.2-0.248","null","","null","","","","","","","","","","","","","key","null","NaN","720","446","3_Stimuli/C_ambi40.png","他人","Image","自我","Mismatch","f","false","Formal",""
"","","","","","psychophysics","313","3922773","0.0-8.0-0.2-0.249","null","","null","","","","","","","","","","","","","key","null","NaN","720","446","3_Stimuli/S_ambi40.png","他人","Word","他人","Match","j","false","Formal",""
"","","","","","psychophysics","314","3925775","0.0-8.0-0.2-0.250","null","","null","","","","","","","","","","","","","key","null","NaN","720","446","3_Stimuli/T_ambi40.png","朋友","Image","朋友","Match","j","false","Formal",""
"","","","","","psychophysics","315","3928775","0.0-8.0-0.2-0.251","null","","null","","","","","","","","","","","","","key","null","NaN","720","446","3_Stimuli/C_ambi40.png","自我","Word","自我","Match","j","false","Formal",""
"","","","","","psychophysics","316","3931773","0.0-8.0-0.2-0.252","null","","null","","","","","","","","","","","","","key","null","NaN","720","446","3_Stimuli/S_ambi40.png","朋友","Image","他人","Mismatch","f","false","Formal",""
"","","","","","psychophysics","317","3934776","0.0-8.0-0.2-0.253","null","","null","","","","","","","","","","","","","key","null","NaN","720","446","3_Stimuli/T_ambi40.png","自我","Image","朋友","Mismatch","f","false","Formal",""
"","","","","","psychophysics","318","3937775","0.0-8.0-0.2-0.254","null","","null","","","","","","","","","","","","","key","null","NaN","720","446","3_Stimuli/S_ambi40.png","自我","Word","他人","Mismatch","f","false","Formal",""
"","","","","","psychophysics","319","3940775","0.0-8.0-0.2-0.255","null","","null","","","","","","","","","","","","","key","null","NaN","720","446","3_Stimuli/S_ambi40.png","他人","Image","他人","Match","j","false","Formal",""
"","","","","","psychophysics","320","3943775","0.0-8.0-0.2-0.256","null","","null","","","","","","","","","","","","","key","null","NaN","720","446","3_Stimuli/C_ambi40.png","他人","Word","自我","Mismatch","f","false","Formal",""
"","","","","","psychophysics","321","3946772","0.0-8.0-0.2-0.257","null","","null","","","","","","","","","","","","","key","null","NaN","720","446","3_Stimuli/T_ambi40.png","朋友","Word","朋友","Match","j","false","Formal",""
"","","","","","psychophysics","322","3949773","0.0-8.0-0.2-0.258","null","","null","","","","","","","","","","","","","key","null","NaN","720","446","3_Stimuli/S_ambi40.png","朋友","Word","他人","Mismatch","f","false","Formal",""
"","","","","","psychophysics","323","3952775","0.0-8.0-0.2-0.259","null","","null","","","","","","","","","","","","","key","null","NaN","720","446","3_Stimuli/T_ambi40.png","他人","Image","朋友","Mismatch","f","false","Formal",""
"","","","","","psychophysics","324","3955774","0.0-8.0-0.2-0.260","null","","null","","","","","","","","","","","","","key","null","NaN","720","446","3_Stimuli/C_ambi40.png","自我","Word","自我","Match","j","false","Formal",""
"","","","","","psychophysics","325","4005773","0.0-8.0-0.2-0.261","null","","null","","","","","","","","","","","","","key","null","NaN","720","446","3_Stimuli/T_ambi40.png","朋友","Word","朋友","Match","j","false","Formal",""
"","","","","","psychophysics","326","4065771","0.0-8.0-0.2-0.262","null","","null","","","","","","","","","","","","","key","null","NaN","720","446","3_Stimuli/C_ambi40.png","朋友","Image","自我","Mismatch","f","false","Formal",""
"","","","","","psychophysics","327","4125769","0.0-8.0-0.2-0.263","null","","null","","","","","","","","","","","","","key","null","NaN","720","446","3_Stimuli/S_ambi40.png","他人","Word","他人","Match","j","false","Formal",""
"","","","","","psychophysics","328","4185767","0.0-8.0-0.2-0.264","null","","null","","","","","","","","","","","","","key","null","NaN","720","446","3_Stimuli/T_ambi40.png","朋友","Image","朋友","Match","j","false","Formal",""
"","","","","","psychophysics","329","4245795","0.0-8.0-0.2-0.265","null","","null","","","","","","","","","","","","","key","null","NaN","720","446","3_Stimuli/T_ambi40.png","自我","Image","朋友","Mismatch","f","false","Formal",""
"","","","","","psychophysics","330","4305813","0.0-8.0-0.2-0.266","null","","null","","","","","","","","","","","","","key","null","NaN","720","446","3_Stimuli/C_ambi40.png","朋友","Word","自我","Mismatch","f","false","Formal",""
"","","","","","psychophysics","331","4365796","0.0-8.0-0.2-0.267","null","","null","","","","","","","","","","","","","key","null","NaN","720","446","3_Stimuli/C_ambi40.png","朋友","Image","自我","Mismatch","f","false","Formal",""
"","","","","","psychophysics","332","4403951","0.0-8.0-0.2-0.268","null","","null","","","","","","","","","","","","","key","null","NaN","720","446","3_Stimuli/S_ambi40.png","自我","Image","他人","Mismatch","f","false","Formal",""
"","","","","","psychophysics","333","4406667","0.0-8.0-0.2-0.269","null","","null","","","","","","","","","","","","","key","null","16.982443037973365","720","446","3_Stimuli/T_ambi40.png","朋友","Image","朋友","Match","j","false","Formal",""
"","","","","","psychophysics","334","4409792","0.0-8.0-0.2-0.270","null","","null","","","","","","","","","","","","","key","null","16.666000000201166","720","446","3_Stimuli/C_ambi40.png","自我","Image","自我","Match","j","false","Formal",""
"","","","","","psychophysics","335","4412792","0.0-8.0-0.2-0.271","null","","null","","","","","","","","","","","","","key","null","NaN","720","446","3_Stimuli/S_ambi40.png","他人","Word","他人","Match","j","false","Formal",""
"","","","","","psychophysics","336","4415790","0.0-8.0-0.2-0.272","null","","null","","","","","","","","","","","","","key","null","NaN","720","446","3_Stimuli/S_ambi40.png","他人","Image","他人","Match","j","false","Formal",""
"","","","","","psychophysics","337","4418792","0.0-8.0-0.2-0.273","null","","null","","","","","","","","","","","","","key","null","NaN","720","446","3_Stimuli/S_ambi40.png","朋友","Image","他人","Mismatch","f","false","Formal",""
"","","","","","psychophysics","338","4421791","0.0-8.0-0.2-0.274","null","","null","","","","","","","","","","","","","key","null","NaN","720","446","3_Stimuli/T_ambi40.png","他人","Image","朋友","Mismatch","f","false","Formal",""
"","","","","","psychophysics","339","4424790","0.0-8.0-0.2-0.275","null","","null","","","","","","","","","","","","","key","null","NaN","720","446","3_Stimuli/T_ambi40.png","朋友","Word","朋友","Match","j","false","Formal",""
"","","","","","psychophysics","340","4427791","0.0-8.0-0.2-0.276","null","","null","","","","","","","","","","","","","key","null","NaN","720","446","3_Stimuli/S_ambi40.png","朋友","Word","他人","Mismatch","f","false","Formal",""
"","","","","","psychophysics","341","4430791","0.0-8.0-0.2-0.277","null","","null","","","","","","","","","","","","","key","null","NaN","720","446","3_Stimuli/S_ambi40.png","自我","Word","他人","Mismatch","f","false","Formal",""
"","","","","","psychophysics","342","4433792","0.0-8.0-0.2-0.278","null","","null","","","","","","","","","","","","","key","null","NaN","720","446","3_Stimuli/S_ambi40.png","他人","Image","他人","Match","j","false","Formal",""
"","","","","","psychophysics","343","4436790","0.0-8.0-0.2-0.279","null","","null","","","","","","","","","","","","","key","null","NaN","720","446","3_Stimuli/T_ambi40.png","朋友","Word","朋友","Match","j","false","Formal",""
"","","","","","psychophysics","344","4439791","0.0-8.0-0.2-0.280","null","","null","","","","","","","","","","","","","key","null","NaN","720","446","3_Stimuli/C_ambi40.png","自我","Word","自我","Match","j","false","Formal",""
"","","","","","psychophysics","345","4442787","0.0-8.0-0.2-0.281","null","","null","","","","","","","","","","","","","key","null","NaN","720","446","3_Stimuli/C_ambi40.png","自我","Image","自我","Match","j","false","Formal",""
"","","","","","psychophysics","346","4445791","0.0-8.0-0.2-0.282","null","","null","","","","","","","","","","","","","key","null","NaN","720","446","3_Stimuli/C_ambi40.png","他人","Image","自我","Mismatch","f","false","Formal",""
"","","","","","psychophysics","347","4448787","0.0-8.0-0.2-0.283","null","","null","","","","","","","","","","","","","key","null","NaN","720","446","3_Stimuli/C_ambi40.png","他人","Word","自我","Mismatch","f","false","Formal",""
"","","","","","psychophysics","348","4451789","0.0-8.0-0.2-0.284","null","","null","","","","","","","","","","","","","key","null","NaN","720","446","3_Stimuli/T_ambi40.png","自我","Word","朋友","Mismatch","f","false","Formal",""
"","","","","","psychophysics","349","4454788","0.0-8.0-0.2-0.285","null","","null","","","","","","","","","","","","","key","null","NaN","720","446","3_Stimuli/T_ambi40.png","他人","Word","朋友","Mismatch","f","false","Formal",""
"","","","","","psychophysics","350","4457789","0.0-8.0-0.2-0.286","null","","null","","","","","","","","","","","","","key","null","NaN","720","446","3_Stimuli/S_ambi40.png","他人","Word","他人","Match","j","false","Formal",""
"","","","","","psychophysics","351","4460791","0.0-8.0-0.2-0.287","null","","null","","","","","","","","","","","","","key","null","NaN","720","446","3_Stimuli/C_ambi40.png","自我","Word","自我","Match","j","false","Formal",""
"","","","","","psychophysics","352","4463790","0.0-8.0-0.2-0.288","null","","null","","","","","","","","","","","","","key","null","NaN","720","446","3_Stimuli/C_ambi40.png","自我","Word","自我","Match","j","false","Formal",""
"","","","","","psychophysics","353","4485788","0.0-8.0-0.2-0.289","null","","null","","","","","","","","","","","","","key","null","NaN","720","446","3_Stimuli/T_ambi40.png","朋友","Image","朋友","Match","j","false","Formal",""
"","","","","","psychophysics","354","4545785","0.0-8.0-0.2-0.290","null","","null","","","","","","","","","","","","","key","null","NaN","720","446","3_Stimuli/S_ambi40.png","他人","Word","他人","Match","j","false","Formal",""
"","","","","","psychophysics","355","4605786","0.0-8.0-0.2-0.291","null","","null","","","","","","","","","","","","","key","null","NaN","720","446","3_Stimuli/T_ambi40.png","他人","Image","朋友","Mismatch","f","false","Formal",""
"","","","","","psychophysics","356","4665793","0.0-8.0-0.2-0.292","null","","null","","","","","","","","","","","","","key","null","NaN","720","446","3_Stimuli/C_ambi40.png","朋友","Word","自我","Mismatch","f","false","Formal",""
"","","","","","psychophysics","357","4725777","0.0-8.0-0.2-0.293","null","","null","","","","","","","","","","","","","key","null","NaN","720","446","3_Stimuli/S_ambi40.png","朋友","Word","他人","Mismatch","f","false","Formal",""
"","","","","","psychophysics","358","4781793","0.0-8.0-0.2-0.294","null","","null","","","","","","","","","","","","","key","null","NaN","720","446","3_Stimuli/S_ambi40.png","自我","Image","他人","Mismatch","f","false","Formal",""
"","","","","","psychophysics","359","4784495","0.0-8.0-0.2-0.295","null","","null","","","","","","","","","","","","","key","null","16.770162499998698","720","446","3_Stimuli/S_ambi40.png","他人","Image","他人","Match","j","false","Formal",""
"","","","","","psychophysics","360","4787197","0.0-8.0-0.2-0.296","null","","null","","","","","","","","","","","","","key","null","16.665999999987736","720","446","3_Stimuli/C_ambi40.png","他人","Word","自我","Mismatch","f","false","Formal",""
"","","","","","psychophysics","361","4789900","0.0-8.0-0.2-0.297","null","","null","","","","","","","","","","","","","key","null","16.667627329191898","720","446","3_Stimuli/C_ambi40.png","朋友","Image","自我","Mismatch","f","false","Formal",""
"","","","","","psychophysics","362","4792603","0.0-8.0-0.2-0.298","null","","null","","","","","","","","","","","","","key","null","16.665999999998704","720","446","3_Stimuli/T_ambi40.png","朋友","Image","朋友","Match","j","false","Formal",""
"","","","","","psychophysics","363","4795305","0.0-8.0-0.2-0.299","null","","null","","","","","","","","","","","","","key","null","16.665999999998704","720","446","3_Stimuli/S_ambi40.png","自我","Word","他人","Mismatch","f","false","Formal",""
"","","","","","psychophysics","364","4798011","0.0-8.0-0.2-0.300","null","","null","","","","","","","","","","","","","key","null","16.665999999998704","720","446","3_Stimuli/C_ambi40.png","自我","Word","自我","Match","j","false","Formal",""
"","","","","","psychophysics","365","4800712","0.0-8.0-0.2-0.301","null","","null","","","","","","","","","","","","","key","null","16.667643749999115","720","446","3_Stimuli/C_ambi40.png","他人","Image","自我","Mismatch","f","false","Formal",""
"","","","","","psychophysics","366","4803415","0.0-8.0-0.2-0.302","null","","null","","","","","","","","","","","","","key","null","16.665999999998704","720","446","3_Stimuli/T_ambi40.png","朋友","Word","朋友","Match","j","false","Formal",""
"","","","","","psychophysics","367","4806117","0.0-8.0-0.2-0.303","null","","null","","","","","","","","","","","","","key","null","16.665999999998704","720","446","3_Stimuli/T_ambi40.png","自我","Image","朋友","Mismatch","f","false","Formal",""
"","","","","","psychophysics","368","4809774","0.0-8.0-0.2-0.304","null","","null","","","","","","","","","","","","","key","null","18.12792982455147","720","446","3_Stimuli/C_ambi40.png","自我","Image","自我","Match","j","false","Formal",""
"","","","","","psychophysics","369","4812774","0.0-8.0-0.2-0.305","null","","null","","","","","","","","","","","","","key","null","NaN","720","446","3_Stimuli/S_ambi40.png","他人","Image","他人","Match","j","false","Formal",""
"","","","","","psychophysics","370","4815772","0.0-8.0-0.2-0.306","null","","null","","","","","","","","","","","","","key","null","NaN","720","446","3_Stimuli/T_ambi40.png","他人","Word","朋友","Mismatch","f","false","Formal",""
"","","","","","psychophysics","371","4818772","0.0-8.0-0.2-0.307","null","","null","","","","","","","","","","","","","key","null","NaN","720","446","3_Stimuli/S_ambi40.png","朋友","Image","他人","Mismatch","f","false","Formal",""
"","","","","","psychophysics","372","4821774","0.0-8.0-0.2-0.308","null","","null","","","","","","","","","","","","","key","null","NaN","720","446","3_Stimuli/C_ambi40.png","自我","Image","自我","Match","j","false","Formal",""
"","","","","","psychophysics","373","4824774","0.0-8.0-0.2-0.309","null","","null","","","","","","","","","","","","","key","null","NaN","720","446","3_Stimuli/T_ambi40.png","自我","Word","朋友","Mismatch","f","false","Formal",""
"","","","","","psychophysics","374","4827772","0.0-8.0-0.2-0.310","null","","null","","","","","","","","","","","","","key","null","NaN","720","446","3_Stimuli/T_ambi40.png","朋友","Word","朋友","Match","j","false","Formal",""
"","","","","","psychophysics","375","4830773","0.0-8.0-0.2-0.311","null","","null","","","","","","","","","","","","","key","null","NaN","720","446","3_Stimuli/S_ambi40.png","他人","Word","他人","Match","j","false","Formal",""
"","","","","","psychophysics","376","4833774","0.0-8.0-0.2-0.312","null","","null","","","","","","","","","","","","","key","null","NaN","720","446","3_Stimuli/C_ambi40.png","朋友","Word","自我","Mismatch","f","false","Formal",""
"","","","","","psychophysics","377","4836769","0.0-8.0-0.2-0.313","null","","null","","","","","","","","","","","","","key","null","NaN","720","446","3_Stimuli/S_ambi40.png","他人","Word","他人","Match","j","false","Formal",""
"","","","","","psychophysics","378","4839773","0.0-8.0-0.2-0.314","null","","null","","","","","","","","","","","","","key","null","NaN","720","446","3_Stimuli/C_ambi40.png","自我","Word","自我","Match","j","false","Formal",""
"","","","","","psychophysics","379","4842773","0.0-8.0-0.2-0.315","null","","null","","","","","","","","","","","","","key","null","NaN","720","446","3_Stimuli/C_ambi40.png","他人","Image","自我","Mismatch","f","false","Formal",""
"","","","","","psychophysics","380","4845771","0.0-8.0-0.2-0.316","null","","null","","","","","","","","","","","","","key","null","NaN","720","446","3_Stimuli/S_ambi40.png","他人","Image","他人","Match","j","false","Formal",""
"","","","","","psychophysics","381","4848774","0.0-8.0-0.2-0.317","null","","null","","","","","","","","","","","","","key","null","NaN","720","446","3_Stimuli/T_ambi40.png","朋友","Word","朋友","Match","j","false","Formal",""
"","","","","","psychophysics","382","4851894","0.0-8.0-0.2-0.318","null","","null","","","","","","","","","","","","","key","null","NaN","720","446","3_Stimuli/S_ambi40.png","朋友","Word","他人","Mismatch","f","false","Formal",""
"","","","","","psychophysics","383","4854769","0.0-8.0-0.2-0.319","null","","null","","","","","","","","","","","","","key","null","NaN","720","446","3_Stimuli/T_ambi40.png","自我","Word","朋友","Mismatch","f","false","Formal",""
"","","","","","psychophysics","384","4857770","0.0-8.0-0.2-0.320","null","","null","","","","","","","","","","","","","key","null","NaN","720","446","3_Stimuli/T_ambi40.png","他人","Word","朋友","Mismatch","f","false","Formal",""
"","","","","","psychophysics","385","4860773","0.0-8.0-0.2-0.321","null","","null","","","","","","","","","","","","","key","null","NaN","720","446","3_Stimuli/S_ambi40.png","自我","Image","他人","Mismatch","f","false","Formal",""
"","","","","","psychophysics","386","4863770","0.0-8.0-0.2-0.322","null","","null","","","","","","","","","","","","","key","null","NaN","720","446","3_Stimuli/T_ambi40.png","朋友","Word","朋友","Match","j","false","Formal",""
"","","","","","psychophysics","387","4866771","0.0-8.0-0.2-0.323","null","","null","","","","","","","","","","","","","key","null","NaN","720","446","3_Stimuli/C_ambi40.png","自我","Image","自我","Match","j","false","Formal",""
"","","","","","psychophysics","388","4905779","0.0-8.0-0.2-0.324","null","","null","","","","","","","","","","","","","key","null","NaN","720","446","3_Stimuli/C_ambi40.png","自我","Image","自我","Match","j","false","Formal",""
"","","","","","psychophysics","389","4965767","0.0-8.0-0.2-0.325","null","","null","","","","","","","","","","","","","key","null","NaN","720","446","3_Stimuli/C_ambi40.png","他人","Word","自我","Mismatch","f","false","Formal",""
"","","","","","psychophysics","390","5012498","0.0-8.0-0.2-0.326","null","","null","","","","","","","","","","","","","key","null","NaN","720","446","3_Stimuli/S_ambi40.png","朋友","Image","他人","Mismatch","f","false","Formal",""
"","","","","","psychophysics","391","5015203","0.0-8.0-0.2-0.327","null","","null","","","","","","","","","","","","","key","null","16.698931677024003","720","446","3_Stimuli/T_ambi40.png","朋友","Image","朋友","Match","j","false","Formal",""
"","","","","","psychophysics","392","5017906","0.0-8.0-0.2-0.328","null","","null","","","","","","","","","","","","","key","null","16.666000000004487","720","446","3_Stimuli/T_ambi40.png","他人","Image","朋友","Mismatch","f","false","Formal",""
"","","","","","psychophysics","393","5020609","0.0-8.0-0.2-0.329","null","","null","","","","","","","","","","","","","key","null","16.666000000004487","720","446","3_Stimuli/S_ambi40.png","他人","Word","他人","Match","j","false","Formal",""
"","","","","","psychophysics","394","5023312","0.0-8.0-0.2-0.330","null","","null","","","","","","","","","","","","","key","null","16.667627329191898","720","446","3_Stimuli/S_ambi40.png","自我","Word","他人","Mismatch","f","false","Formal",""
"","","","","","psychophysics","395","5026014","0.0-8.0-0.2-0.331","null","","null","","","","","","","","","","","","","key","null","16.665999999998704","720","446","3_Stimuli/S_ambi40.png","他人","Image","他人","Match","j","false","Formal",""
"","","","","","psychophysics","396","5028716","0.0-8.0-0.2-0.332","null","","null","","","","","","","","","","","","","key","null","16.665999999998704","720","446","3_Stimuli/T_ambi40.png","自我","Image","朋友","Mismatch","f","false","Formal",""
"","","","","","psychophysics","397","5031420","0.0-8.0-0.2-0.333","null","","null","","","","","","","","","","","","","key","null","16.665999999998704","720","446","3_Stimuli/C_ambi40.png","朋友","Image","自我","Mismatch","f","false","Formal",""
"","","","","","psychophysics","398","5034122","0.0-8.0-0.2-0.334","null","","null","","","","","","","","","","","","","key","null","16.667633540373043","720","446","3_Stimuli/C_ambi40.png","自我","Word","自我","Match","j","false","Formal",""
"","","","","","psychophysics","399","5036825","0.0-8.0-0.2-0.335","null","","null","","","","","","","","","","","","","key","null","16.665999999998704","720","446","3_Stimuli/T_ambi40.png","朋友","Image","朋友","Match","j","false","Formal",""
"","","","","","psychophysics","400","5039532","0.0-8.0-0.2-0.336","null","","null","","","","","","","","","","","","","key","null","16.665999999998704","720","446","3_Stimuli/T_ambi40.png","他人","Image","朋友","Mismatch","f","false","Formal",""
"","","","","","psychophysics","401","5042236","0.0-8.0-0.2-0.337","null","","null","","","","","","","","","","","","","key","null","16.665999999998704","720","446","3_Stimuli/S_ambi40.png","朋友","Image","他人","Mismatch","f","false","Formal",""
"","","","","","psychophysics","402","5044939","0.0-8.0-0.2-0.338","null","","null","","","","","","","","","","","","","key","null","16.667627329191898","720","446","3_Stimuli/C_ambi40.png","朋友","Image","自我","Mismatch","f","false","Formal",""
"","","","","","psychophysics","403","5047643","0.0-8.0-0.2-0.339","null","","null","","","","","","","","","","","","","key","null","16.666000000004487","720","446","3_Stimuli/S_ambi40.png","自我","Image","他人","Mismatch","f","false","Formal",""
"","","","","","psychophysics","404","5050348","0.0-8.0-0.2-0.340","null","","null","","","","","","","","","","","","","key","null","16.666000000004487","720","446","3_Stimuli/T_ambi40.png","朋友","Word","朋友","Match","j","false","Formal",""
"","","","","","psychophysics","405","5053050","0.0-8.0-0.2-0.341","null","","null","","","","","","","","","","","","","key","null","16.667633540373043","720","446","3_Stimuli/T_ambi40.png","朋友","Word","朋友","Match","j","false","Formal",""
"","","","","","psychophysics","406","5055756","0.0-8.0-0.2-0.342","null","","null","","","","","","","","","","","","","key","null","16.665999999998704","720","446","3_Stimuli/S_ambi40.png","他人","Word","他人","Match","j","false","Formal",""
"","","","","","psychophysics","407","5058462","0.0-8.0-0.2-0.343","null","","null","","","","","","","","","","","","","key","null","16.665999999998704","720","446","3_Stimuli/T_ambi40.png","他人","Word","朋友","Mismatch","f","false","Formal",""
"","","","","","psychophysics","408","5061165","0.0-8.0-0.2-0.344","null","","null","","","","","","","","","","","","","key","null","16.665999999998704","720","446","3_Stimuli/C_ambi40.png","朋友","Word","自我","Mismatch","f","false","Formal",""
"","","","","","psychophysics","409","5063869","0.0-8.0-0.2-0.345","null","","null","","","","","","","","","","","","","key","null","16.667627329191898","720","446","3_Stimuli/C_ambi40.png","自我","Image","自我","Match","j","false","Formal",""
"","","","","","psychophysics","410","5066572","0.0-8.0-0.2-0.346","null","","null","","","","","","","","","","","","","key","null","16.665999999998704","720","446","3_Stimuli/T_ambi40.png","朋友","Image","朋友","Match","j","false","Formal",""
"","","","","","psychophysics","411","5069276","0.0-8.0-0.2-0.347","null","","null","","","","","","","","","","","","","key","null","16.665999999998704","720","446","3_Stimuli/S_ambi40.png","朋友","Word","他人","Mismatch","f","false","Formal",""
"","","","","","psychophysics","412","5071982","0.0-8.0-0.2-0.348","null","","null","","","","","","","","","","","","","key","null","16.665999999998704","720","446","3_Stimuli/C_ambi40.png","自我","Word","自我","Match","j","false","Formal",""
"","","","","","psychophysics","413","5074688","0.0-8.0-0.2-0.349","null","","null","","","","","","","","","","","","","key","null","16.667633540373043","720","446","3_Stimuli/C_ambi40.png","自我","Word","自我","Match","j","false","Formal",""
"","","","","","psychophysics","414","5077391","0.0-8.0-0.2-0.350","null","","null","","","","","","","","","","","","","key","null","16.665999999998704","720","446","3_Stimuli/T_ambi40.png","自我","Image","朋友","Mismatch","f","false","Formal",""
"","","","","","psychophysics","415","5080093","0.0-8.0-0.2-0.351","null","","null","","","","","","","","","","","","","key","null","16.665999999998704","720","446","3_Stimuli/T_ambi40.png","自我","Word","朋友","Mismatch","f","false","Formal",""
"","","","","","psychophysics","416","5082796","0.0-8.0-0.2-0.352","null","","null","","","","","","","","","","","","","key","null","16.667627329191898","720","446","3_Stimuli/C_ambi40.png","他人","Word","自我","Mismatch","f","false","Formal",""
"","","","","","psychophysics","417","5085504","0.0-8.0-0.2-0.353","null","","null","","","","","","","","","","","","","key","null","16.665999999998704","720","446","3_Stimuli/S_ambi40.png","他人","Image","他人","Match","j","false","Formal",""
"","","","","","psychophysics","418","5088207","0.0-8.0-0.2-0.354","null","","null","","","","","","","","","","","","","key","null","16.665999999998704","720","446","3_Stimuli/S_ambi40.png","他人","Image","他人","Match","j","false","Formal",""
"","","","","","psychophysics","419","5090909","0.0-8.0-0.2-0.355","null","","null","","","","","","","","","","","","","key","null","16.665999999998704","720","446","3_Stimuli/T_ambi40.png","朋友","Image","朋友","Match","j","false","Formal",""
"","","","","","psychophysics","420","5093611","0.0-8.0-0.2-0.356","null","","null","","","","","","","","","","","","","key","null","16.667633540373043","720","446","3_Stimuli/S_ambi40.png","他人","Word","他人","Match","j","false","Formal",""
"","","","","","psychophysics","421","5096318","0.0-8.0-0.2-0.357","null","","null","","","","","","","","","","","","","key","null","16.666000000004487","720","446","3_Stimuli/S_ambi40.png","自我","Word","他人","Mismatch","f","false","Formal",""
