"success","timeout","failed_images","failed_audio","failed_video","trial_type","trial_index","time_elapsed","internal_node_id","rt","stimulus","response","value","item_width_mm","item_height_mm","item_width_px","px2mm","view_dist_mm","item_width_deg","px2deg","scale_factor","win_width_deg","win_height_deg","view_history","response_type","key_press","avg_frame_time","center_x","center_y","correct_response","correct","Image","word","target","test","image_start","word_start","Valence","Matchness","exp_condition","screen_id"
"true","false","[]","[]","[]","preload","0","4","0.0-0.0","","","","","","","","","","","","","","","","","","","","","","","","","","","","","","","",""
"","","","","","html-keyboard-response","1","673","0.0-1.0","668","
     <p>您好，欢迎参加本次实验。</p>
     <p>为充分保障您的权利，请确保您已经知晓并同意《参与实验同意书》以及《数据公开知情同意书》。</p>
     <p>如果您未见过上述内容，请咨询实验员。</p>
     <p>如果您选择继续实验，则表示您已经清楚两份知情同意书的内容并同意。</p>
     <p> <div style = ""color: green""><按任意键至下页></div> </p>
     "," ","","","","","","","","","","","","","","","","","","","","","","","","","","","","",""
"","","","","","html-keyboard-response","2","1010","0.0-2.0","337","
   <p>本实验首先需要您填写一些基本个人信息。</p>
   <p> <div style = ""color: green""><按任意键至下页></div></p>
   "," ","","","","","","","","","","","","","","","","","","","","","","","","","","","","",""
"","","","","","call-function","3","1011","0.0-3.0-0.0","","","","","","","","","","","","","","","","","","","","","","","","","","","","","","","",""
"","","","","","survey-html-form","4","2817","0.0-3.0-1.0","1805","","{""Q0"":""2""}","","","","","","","","","","","","","","","","","","","","","","","","","","","","",""
"","","","","","html-button-response","5","3706","0.0-3.0-2.0","888","<p style = 'color : white'>您的性别</p>","1","","","","","","","","","","","","","","","","","","","","","","","","","","","","",""
"","","","","","survey-html-form","6","5117","0.0-3.0-3.0","1410","","{""Q0"":""1900""}","","","","","","","","","","","","","","","","","","","","","","","","","","","","",""
"","","","","","survey-html-form","7","6077","0.0-3.0-4.0","959","","{""Q0"":""6""}","","","","","","","","","","","","","","","","","","","","","","","","","","","","",""
"","","","","","virtual-chinrest","8","24125","0.0-4.0","18046","","","","85.6","53.98","511.1180506426266","5.968761128309867","478.51","10.222361012852533","50","0.8745533432794806","28.8","15.66","","","","","","","","","","","","","","","","","",""
"true","","","","","fullscreen","9","25760","0.0-5.0","","","","","","","","","","","","","","","","","","","","","","","","","","","","","","","",""
"","","","","","instructions","10","47144","0.0-6.0","21383","","","","","","","","","","","","","","[{""page_index"":0,""viewing_time"":1154},{""page_index"":1,""viewing_time"":17667},{""page_index"":2,""viewing_time"":933},{""page_index"":3,""viewing_time"":1628}]","","","","","","","","","","","","","","","","",""
"","","","","","psychophysics","11","49016","0.0-7.0-0.0-0.0","715","","f","","","","","","","","","","","","","key","f","16.66600000000006","720","446","f","true","3_Stimuli/S_ambi40.png","自我","Image","Word","1000","1150","自我","Match","Practice",""
"","","","","","html-keyboard-response","12","49322","0.0-7.0-0.0-1.0","null","<span style='color:GreenYellow; font-size: 70px;'>正确! </span>","null","","","","","","","","","","","","","","","","","","","","","","","","","","","","","feedback"
"","","","","","psychophysics","13","51083","0.0-7.0-0.0-0.1","609","","j","","","","","","","","","","","","","key","j","16.665999999999958","720","446","j","true","3_Stimuli/C_ambi40.png","他人","Word","Image","1150","1000","朋友","Mismatch","Practice",""
"","","","","","html-keyboard-response","14","51390","0.0-7.0-0.0-1.1","null","<span style='color:GreenYellow; font-size: 70px;'>正确! </span>","null","","","","","","","","","","","","","","","","","","","","","","","","","","","","","feedback"
"","","","","","psychophysics","15","53508","0.0-7.0-0.0-0.2","961","","j","","","","","","","","","","","","","key","j","16.65425396825398","720","446","j","true","3_Stimuli/C_ambi40.png","自我","Word","Image","1150","1000","朋友","Mismatch","Practice",""
"","","","","","html-keyboard-response","16","53812","0.0-7.0-0.0-1.2","null","<span style='color:GreenYellow; font-size: 70px;'>正确! </span>","null","","","","","","","","","","","","","","","","","","","","","","","","","","","","","feedback"
"","","","","","psychophysics","17","55861","0.0-7.0-0.0-0.3","890","","f","","","","","","","","","","","","","key","f","16.666000000000004","720","446","j","false","3_Stimuli/S_ambi40.png","他人","Image","Word","1000","1150","自我","Mismatch","Practice",""
"","","","","","html-keyboard-response","18","56172","0.0-7.0-0.0-1.3","null","<span style='color:red; font-size: 70px;'>错误! </span>","null","","","","","","","","","","","","","","","","","","","","","","","","","","","","","feedback"
"","","","","","psychophysics","19","58165","0.0-7.0-0.0-0.4","834","","j","","","","","","","","","","","","","key","j","16.66599999999997","720","446","j","true","3_Stimuli/C_ambi40.png","他人","Image","Word","1000","1150","朋友","Mismatch","Practice",""
"","","","","","html-keyboard-response","20","58471","0.0-7.0-0.0-1.4","null","<span style='color:GreenYellow; font-size: 70px;'>正确! </span>","null","","","","","","","","","","","","","","","","","","","","","","","","","","","","","feedback"
"","","","","","psychophysics","21","60222","0.0-7.0-0.0-0.5","595","","f","","","","","","","","","","","","","key","f","16.66600000000003","720","446","j","false","3_Stimuli/T_ambi40.png","自我","Word","Image","1150","1000","他人","Mismatch","Practice",""
"","","","","","html-keyboard-response","22","60530","0.0-7.0-0.0-1.5","null","<span style='color:red; font-size: 70px;'>错误! </span>","null","","","","","","","","","","","","","","","","","","","","","","","","","","","","","feedback"
"","","","","","psychophysics","23","62215","0.0-7.0-0.0-0.6","529","","f","","","","","","","","","","","","","key","f","16.665999999999986","720","446","f","true","3_Stimuli/S_ambi40.png","自我","Image","Word","1000","1150","自我","Match","Practice",""
"","","","","","html-keyboard-response","24","62525","0.0-7.0-0.0-1.6","null","<span style='color:GreenYellow; font-size: 70px;'>正确! </span>","null","","","","","","","","","","","","","","","","","","","","","","","","","","","","","feedback"
"","","","","","psychophysics","25","64260","0.0-7.0-0.0-0.7","583","","f","","","","","","","","","","","","","key","f","16.717320388349496","720","446","f","true","3_Stimuli/T_ambi40.png","他人","Word","Image","1150","1000","他人","Match","Practice",""
"","","","","","html-keyboard-response","26","64563","0.0-7.0-0.0-1.7","null","<span style='color:GreenYellow; font-size: 70px;'>正确! </span>","null","","","","","","","","","","","","","","","","","","","","","","","","","","","","","feedback"
"","","","","","psychophysics","27","66416","0.0-7.0-0.0-0.8","696","","f","","","","","","","","","","","","","key","f","16.666000000000018","720","446","f","true","3_Stimuli/S_ambi40.png","自我","Word","Image","1150","1000","自我","Match","Practice",""
"","","","","","html-keyboard-response","28","66724","0.0-7.0-0.0-1.8","null","<span style='color:GreenYellow; font-size: 70px;'>正确! </span>","null","","","","","","","","","","","","","","","","","","","","","","","","","","","","","feedback"
"","","","","","psychophysics","29","68746","0.0-7.0-0.0-0.9","862","","f","","","","","","","","","","","","","key","f","16.665999999999986","720","446","f","true","3_Stimuli/C_ambi40.png","朋友","Word","Image","1150","1000","朋友","Match","Practice",""
"","","","","","html-keyboard-response","30","69054","0.0-7.0-0.0-1.9","null","<span style='color:GreenYellow; font-size: 70px;'>正确! </span>","null","","","","","","","","","","","","","","","","","","","","","","","","","","","","","feedback"
"","","","","","psychophysics","31","70867","0.0-7.0-0.0-0.10","658","","j","","","","","","","","","","","","","key","j","16.66600000000002","720","446","f","false","3_Stimuli/C_ambi40.png","朋友","Image","Word","1000","1150","朋友","Match","Practice",""
"","","","","","html-keyboard-response","32","71172","0.0-7.0-0.0-1.10","null","<span style='color:red; font-size: 70px;'>错误! </span>","null","","","","","","","","","","","","","","","","","","","","","","","","","","","","","feedback"
"","","","","","psychophysics","33","72807","0.0-7.0-0.0-0.11","482","","f","","","","","","","","","","","","","key","f","16.62767010309284","720","446","f","true","3_Stimuli/C_ambi40.png","朋友","Image","Word","1000","1150","朋友","Match","Practice",""
"","","","","","html-keyboard-response","34","73118","0.0-7.0-0.0-1.11","null","<span style='color:GreenYellow; font-size: 70px;'>正确! </span>","null","","","","","","","","","","","","","","","","","","","","","","","","","","","","","feedback"
"","","","","","psychophysics","35","74706","0.0-7.0-0.0-0.12","434","","f","","","","","","","","","","","","","key","f","16.66600000000007","720","446","j","false","3_Stimuli/T_ambi40.png","自我","Image","Word","1000","1150","他人","Mismatch","Practice",""
"","","","","","html-keyboard-response","36","75013","0.0-7.0-0.0-1.12","null","<span style='color:red; font-size: 70px;'>错误! </span>","null","","","","","","","","","","","","","","","","","","","","","","","","","","","","","feedback"
"","","","","","psychophysics","37","76490","0.0-7.0-0.0-0.13","324","","f","","","","","","","","","","","","","key","f","16.666000000000086","720","446","j","false","3_Stimuli/S_ambi40.png","他人","Word","Image","1150","1000","自我","Mismatch","Practice",""
"","","","","","html-keyboard-response","38","76797","0.0-7.0-0.0-1.13","null","<span style='color:red; font-size: 70px;'>错误! </span>","null","","","","","","","","","","","","","","","","","","","","","","","","","","","","","feedback"
"","","","","","psychophysics","39","78436","0.0-7.0-0.0-0.14","485","","f","","","","","","","","","","","","","key","f","16.665999999999965","720","446","j","false","3_Stimuli/T_ambi40.png","朋友","Image","Word","1000","1150","他人","Mismatch","Practice",""
"","","","","","html-keyboard-response","40","78739","0.0-7.0-0.0-1.14","null","<span style='color:red; font-size: 70px;'>错误! </span>","null","","","","","","","","","","","","","","","","","","","","","","","","","","","","","feedback"
"","","","","","psychophysics","41","80554","0.0-7.0-0.0-0.15","654","","f","","","","","","","","","","","","","key","f","16.666","720","446","f","true","3_Stimuli/T_ambi40.png","他人","Image","Word","1000","1150","他人","Match","Practice",""
"","","","","","html-keyboard-response","42","80855","0.0-7.0-0.0-1.15","null","<span style='color:GreenYellow; font-size: 70px;'>正确! </span>","null","","","","","","","","","","","","","","","","","","","","","","","","","","","","","feedback"
"","","","","","psychophysics","43","82668","0.0-7.0-0.0-0.16","657","","f","","","","","","","","","","","","","key","f","16.689112149532715","720","446","f","true","3_Stimuli/T_ambi40.png","他人","Word","Image","1150","1000","他人","Match","Practice",""
"","","","","","html-keyboard-response","44","82975","0.0-7.0-0.0-1.16","null","<span style='color:GreenYellow; font-size: 70px;'>正确! </span>","null","","","","","","","","","","","","","","","","","","","","","","","","","","","","","feedback"
"","","","","","psychophysics","45","84852","0.0-7.0-0.0-0.17","719","","f","","","","","","","","","","","","","key","f","16.66599999999993","720","446","f","true","3_Stimuli/T_ambi40.png","他人","Image","Word","1000","1150","他人","Match","Practice",""
"","","","","","html-keyboard-response","46","85160","0.0-7.0-0.0-1.17","null","<span style='color:GreenYellow; font-size: 70px;'>正确! </span>","null","","","","","","","","","","","","","","","","","","","","","","","","","","","","","feedback"
"","","","","","psychophysics","47","86915","0.0-7.0-0.0-0.18","596","","f","","","","","","","","","","","","","key","f","16.665999999999983","720","446","j","false","3_Stimuli/C_ambi40.png","自我","Image","Word","1000","1150","朋友","Mismatch","Practice",""
"","","","","","html-keyboard-response","48","87219","0.0-7.0-0.0-1.18","null","<span style='color:red; font-size: 70px;'>错误! </span>","null","","","","","","","","","","","","","","","","","","","","","","","","","","","","","feedback"
"","","","","","psychophysics","49","88833","0.0-7.0-0.0-0.19","459","","f","","","","","","","","","","","","","key","f","16.666000000000043","720","446","j","false","3_Stimuli/S_ambi40.png","朋友","Image","Word","1000","1150","自我","Mismatch","Practice",""
"","","","","","html-keyboard-response","50","89139","0.0-7.0-0.0-1.19","null","<span style='color:red; font-size: 70px;'>错误! </span>","null","","","","","","","","","","","","","","","","","","","","","","","","","","","","","feedback"
"","","","","","psychophysics","51","90939","0.0-7.0-0.0-0.20","640","","f","","","","","","","","","","","","","key","f","16.665999999999887","720","446","f","true","3_Stimuli/S_ambi40.png","自我","Word","Image","1150","1000","自我","Match","Practice",""
"","","","","","html-keyboard-response","52","91242","0.0-7.0-0.0-1.20","null","<span style='color:GreenYellow; font-size: 70px;'>正确! </span>","null","","","","","","","","","","","","","","","","","","","","","","","","","","","","","feedback"
"","","","","","psychophysics","53","93094","0.0-7.0-0.0-0.21","698","","f","","","","","","","","","","","","","key","f","16.630490909090838","720","446","j","false","3_Stimuli/T_ambi40.png","朋友","Word","Image","1150","1000","他人","Mismatch","Practice",""
"","","","","","html-keyboard-response","54","93403","0.0-7.0-0.0-1.21","null","<span style='color:red; font-size: 70px;'>错误! </span>","null","","","","","","","","","","","","","","","","","","","","","","","","","","","","","feedback"
"","","","","","psychophysics","55","95069","0.0-7.0-0.0-0.22","505","","f","","","","","","","","","","","","","key","f","16.665999999999936","720","446","f","true","3_Stimuli/C_ambi40.png","朋友","Word","Image","1150","1000","朋友","Match","Practice",""
"","","","","","html-keyboard-response","56","95381","0.0-7.0-0.0-1.22","null","<span style='color:GreenYellow; font-size: 70px;'>正确! </span>","null","","","","","","","","","","","","","","","","","","","","","","","","","","","","","feedback"
"","","","","","psychophysics","57","97621","0.0-7.0-0.0-0.23","1087","","j","","","","","","","","","","","","","key","j","16.665999999999954","720","446","j","true","3_Stimuli/S_ambi40.png","朋友","Word","Image","1150","1000","自我","Mismatch","Practice",""
"","","","","","html-keyboard-response","58","97924","0.0-7.0-0.0-1.23","null","<span style='color:GreenYellow; font-size: 70px;'>正确! </span>","null","","","","","","","","","","","","","","","","","","","","","","","","","","","","","feedback"
"","","","","","html-keyboard-response","59","102516","0.0-8.0","4588","<style>.context{color:white; font-size: 35px; line-height:40px}</style>                          <div><p class='context'>您正确回答了63% 的试次。</p><p class='context'>您的平均反应时为702毫秒。</p><p class='context'>恭喜您完成练习。按任意键进入正式实验。</p><p class='footer' style='font-size: 35px; line-height:40px;'>请在进入正式实验实验之前将您的<span style='color: lightgreen;'>食指</span>放在电脑键盘的相应键位上进行按键。</p>","j","","","","","","","","","","","","","","","","","","","","","","","","","","","","",""
"","","","","","psychophysics","60","104443","0.0-9.0-0.0-0.0-0.0-0.0","770","","f","","","","","","","","","","","","","key","f","16.723298245614085","720","446","f","true","3_Stimuli/C_ambi40.png","朋友","Word","Image","1150","1000","朋友","Match","Formal",""
"","","","","","psychophysics","61","106128","0.0-9.0-0.0-0.0-0.0-0.1","529","","f","","","","","","","","","","","","","key","f","16.666000000000057","720","446","f","true","3_Stimuli/C_ambi40.png","朋友","Word","Image","1150","1000","朋友","Match","Formal",""
"","","","","","psychophysics","62","107780","0.0-9.0-0.0-0.0-0.0-0.2","496","","f","","","","","","","","","","","","","key","f","16.665999999999965","720","446","f","true","3_Stimuli/T_ambi40.png","他人","Word","Image","1150","1000","他人","Match","Formal",""
"","","","","","psychophysics","63","109247","0.0-9.0-0.0-0.0-0.0-0.3","307","","f","","","","","","","","","","","","","key","f","16.665999999999947","720","446","j","false","3_Stimuli/T_ambi40.png","自我","Image","Word","1000","1150","他人","Mismatch","Formal",""
"","","","","","psychophysics","64","111011","0.0-9.0-0.0-0.0-0.0-0.4","608","","f","","","","","","","","","","","","","key","f","16.665999999999958","720","446","j","false","3_Stimuli/T_ambi40.png","朋友","Word","Image","1150","1000","他人","Mismatch","Formal",""
"","","","","","psychophysics","65","112626","0.0-9.0-0.0-0.0-0.0-0.5","464","","f","","","","","","","","","","","","","key","f","16.666000000000015","720","446","f","true","3_Stimuli/T_ambi40.png","他人","Image","Word","1000","1150","他人","Match","Formal",""
"","","","","","psychophysics","66","114315","0.0-9.0-0.0-0.0-0.0-0.6","537","","f","","","","","","","","","","","","","key","f","16.669400000000024","720","446","f","true","3_Stimuli/S_ambi40.png","自我","Image","Word","1000","1150","自我","Match","Formal",""
"","","","","","psychophysics","67","115996","0.0-9.0-0.0-0.0-0.0-0.7","525","","f","","","","","","","","","","","","","key","f","16.665999999999936","720","446","f","true","3_Stimuli/S_ambi40.png","自我","Word","Image","1150","1000","自我","Match","Formal",""
"","","","","","psychophysics","68","117836","0.0-9.0-0.0-0.0-0.0-0.8","680","","f","","","","","","","","","","","","","key","f","16.665999999999976","720","446","f","true","3_Stimuli/T_ambi40.png","他人","Word","Image","1150","1000","他人","Match","Formal",""
"","","","","","psychophysics","69","119549","0.0-9.0-0.0-0.0-0.0-0.9","559","","f","","","","","","","","","","","","","key","f","16.665999999999887","720","446","j","false","3_Stimuli/S_ambi40.png","朋友","Word","Image","1150","1000","自我","Mismatch","Formal",""
"","","","","","psychophysics","70","121400","0.0-9.0-0.0-0.0-0.0-0.10","694","","f","","","","","","","","","","","","","key","f","16.665999999999976","720","446","j","false","3_Stimuli/C_ambi40.png","他人","Word","Image","1150","1000","朋友","Mismatch","Formal",""
"","","","","","psychophysics","71","123129","0.0-9.0-0.0-0.0-0.0-0.11","576","","f","","","","","","","","","","","","","key","f","16.6686176470589","720","446","f","true","3_Stimuli/S_ambi40.png","自我","Image","Word","1000","1150","自我","Match","Formal",""
"","","","","","psychophysics","72","124568","0.0-9.0-0.0-0.0-0.0-0.12","284","","f","","","","","","","","","","","","","key","f","16.666000000000007","720","446","j","false","3_Stimuli/S_ambi40.png","朋友","Image","Word","1000","1150","自我","Mismatch","Formal",""
"","","","","","psychophysics","73","126370","0.0-9.0-0.0-0.0-0.0-0.13","648","","j","","","","","","","","","","","","","key","j","16.666000000000047","720","446","j","true","3_Stimuli/S_ambi40.png","他人","Image","Word","1000","1150","自我","Mismatch","Formal",""
"","","","","","psychophysics","74","129036","0.0-9.0-0.0-0.0-0.0-0.14","null","","null","","","","","","","","","","","","","key","null","16.666000000000018","720","446","j","false","3_Stimuli/T_ambi40.png","朋友","Image","Word","1000","1150","他人","Mismatch","Formal",""
"","","","","","psychophysics","75","131699","0.0-9.0-0.0-0.0-0.0-0.15","null","","null","","","","","","","","","","","","","key","null","16.666000000000018","720","446","j","false","3_Stimuli/T_ambi40.png","自我","Word","Image","1150","1000","他人","Mismatch","Formal",""
"","","","","","psychophysics","76","134358","0.0-9.0-0.0-0.0-0.0-0.16","null","","null","","","","","","","","","","","","","key","null","16.66767088607594","720","446","j","false","3_Stimuli/C_ambi40.png","自我","Image","Word","1000","1150","朋友","Mismatch","Formal",""
"","","","","","psychophysics","77","137019","0.0-9.0-0.0-0.0-0.0-0.17","null","","null","","","","","","","","","","","","","key","null","16.666000000000018","720","446","j","false","3_Stimuli/C_ambi40.png","自我","Word","Image","1150","1000","朋友","Mismatch","Formal",""
"","","","","","psychophysics","78","139688","0.0-9.0-0.0-0.0-0.0-0.18","null","","null","","","","","","","","","","","","","key","null","16.665999999999833","720","446","f","false","3_Stimuli/T_ambi40.png","他人","Image","Word","1000","1150","他人","Match","Formal",""
"","","","","","psychophysics","79","142355","0.0-9.0-0.0-0.0-0.0-0.19","null","","null","","","","","","","","","","","","","key","null","16.666000000000018","720","446","f","false","3_Stimuli/C_ambi40.png","朋友","Image","Word","1000","1150","朋友","Match","Formal",""
"","","","","","psychophysics","80","145019","0.0-9.0-0.0-0.0-0.0-0.20","null","","null","","","","","","","","","","","","","key","null","16.667683544303653","720","446","j","false","3_Stimuli/C_ambi40.png","他人","Image","Word","1000","1150","朋友","Mismatch","Formal",""
"","","","","","psychophysics","81","147684","0.0-9.0-0.0-0.0-0.0-0.21","null","","null","","","","","","","","","","","","","key","null","16.666000000000018","720","446","j","false","3_Stimuli/S_ambi40.png","他人","Word","Image","1150","1000","自我","Mismatch","Formal",""
"","","","","","psychophysics","82","150347","0.0-9.0-0.0-0.0-0.0-0.22","null","","null","","","","","","","","","","","","","key","null","16.666000000000018","720","446","f","false","3_Stimuli/C_ambi40.png","朋友","Image","Word","1000","1150","朋友","Match","Formal",""
"","","","","","psychophysics","83","153006","0.0-9.0-0.0-0.0-0.0-0.23","null","","null","","","","","","","","","","","","","key","null","16.667253164557003","720","446","f","false","3_Stimuli/S_ambi40.png","自我","Word","Image","1150","1000","自我","Match","Formal",""
"","","","","","psychophysics","84","155667","0.0-9.0-0.0-0.0-0.0-0.24","null","","null","","","","","","","","","","","","","key","null","16.666000000000018","720","446","f","false","3_Stimuli/T_ambi40.png","他人","Image","Word","1000","1150","他人","Match","Formal",""
"","","","","","psychophysics","85","158327","0.0-9.0-0.0-0.0-0.0-0.25","null","","null","","","","","","","","","","","","","key","null","16.666000000000018","720","446","j","false","3_Stimuli/S_ambi40.png","朋友","Word","Image","1150","1000","自我","Mismatch","Formal",""
"","","","","","psychophysics","86","161470","0.0-9.0-0.0-0.0-0.0-0.26","null","","null","","","","","","","","","","","","","key","null","16.66599999999991","720","446","f","false","3_Stimuli/C_ambi40.png","朋友","Word","Image","1150","1000","朋友","Match","Formal",""
"","","","","","psychophysics","87","164466","0.0-9.0-0.0-0.0-0.0-0.27","null","","null","","","","","","","","","","","","","key","null","NaN","720","446","j","false","3_Stimuli/S_ambi40.png","他人","Image","Word","1000","1150","自我","Mismatch","Formal",""
"","","","","","psychophysics","88","167468","0.0-9.0-0.0-0.0-0.0-0.28","null","","null","","","","","","","","","","","","","key","null","NaN","720","446","j","false","3_Stimuli/T_ambi40.png","自我","Word","Image","1150","1000","他人","Mismatch","Formal",""
"","","","","","psychophysics","89","170471","0.0-9.0-0.0-0.0-0.0-0.29","null","","null","","","","","","","","","","","","","key","null","NaN","720","446","j","false","3_Stimuli/S_ambi40.png","朋友","Image","Word","1000","1150","自我","Mismatch","Formal",""
"","","","","","psychophysics","90","173467","0.0-9.0-0.0-0.0-0.0-0.30","null","","null","","","","","","","","","","","","","key","null","NaN","720","446","j","false","3_Stimuli/C_ambi40.png","他人","Word","Image","1150","1000","朋友","Mismatch","Formal",""
"","","","","","psychophysics","91","176466","0.0-9.0-0.0-0.0-0.0-0.31","null","","null","","","","","","","","","","","","","key","null","NaN","720","446","f","false","3_Stimuli/T_ambi40.png","他人","Word","Image","1150","1000","他人","Match","Formal",""
"","","","","","psychophysics","92","179468","0.0-9.0-0.0-0.0-0.0-0.32","null","","null","","","","","","","","","","","","","key","null","NaN","720","446","f","false","3_Stimuli/C_ambi40.png","朋友","Image","Word","1000","1150","朋友","Match","Formal",""
"","","","","","psychophysics","93","182466","0.0-9.0-0.0-0.0-0.0-0.33","null","","null","","","","","","","","","","","","","key","null","NaN","720","446","f","false","3_Stimuli/C_ambi40.png","朋友","Image","Word","1000","1150","朋友","Match","Formal",""
"","","","","","psychophysics","94","185468","0.0-9.0-0.0-0.0-0.0-0.34","null","","null","","","","","","","","","","","","","key","null","NaN","720","446","j","false","3_Stimuli/C_ambi40.png","他人","Image","Word","1000","1150","朋友","Mismatch","Formal",""
"","","","","","psychophysics","95","188466","0.0-9.0-0.0-0.0-0.0-0.35","null","","null","","","","","","","","","","","","","key","null","NaN","720","446","j","false","3_Stimuli/C_ambi40.png","自我","Image","Word","1000","1150","朋友","Mismatch","Formal",""
"","","","","","psychophysics","96","191470","0.0-9.0-0.0-0.0-0.0-0.36","null","","null","","","","","","","","","","","","","key","null","NaN","720","446","f","false","3_Stimuli/T_ambi40.png","他人","Word","Image","1150","1000","他人","Match","Formal",""
"","","","","","psychophysics","97","194467","0.0-9.0-0.0-0.0-0.0-0.37","null","","null","","","","","","","","","","","","","key","null","NaN","720","446","j","false","3_Stimuli/T_ambi40.png","朋友","Word","Image","1150","1000","他人","Mismatch","Formal",""
"","","","","","psychophysics","98","197466","0.0-9.0-0.0-0.0-0.0-0.38","null","","null","","","","","","","","","","","","","key","null","NaN","720","446","f","false","3_Stimuli/C_ambi40.png","朋友","Word","Image","1150","1000","朋友","Match","Formal",""
"","","","","","psychophysics","99","200471","0.0-9.0-0.0-0.0-0.0-0.39","null","","null","","","","","","","","","","","","","key","null","NaN","720","446","f","false","3_Stimuli/S_ambi40.png","自我","Image","Word","1000","1150","自我","Match","Formal",""
"","","","","","psychophysics","100","203467","0.0-9.0-0.0-0.0-0.0-0.40","null","","null","","","","","","","","","","","","","key","null","NaN","720","446","j","false","3_Stimuli/S_ambi40.png","他人","Word","Image","1150","1000","自我","Mismatch","Formal",""
"","","","","","psychophysics","101","206471","0.0-9.0-0.0-0.0-0.0-0.41","null","","null","","","","","","","","","","","","","key","null","NaN","720","446","j","false","3_Stimuli/C_ambi40.png","自我","Word","Image","1150","1000","朋友","Mismatch","Formal",""
"","","","","","psychophysics","102","209468","0.0-9.0-0.0-0.0-0.0-0.42","null","","null","","","","","","","","","","","","","key","null","NaN","720","446","j","false","3_Stimuli/T_ambi40.png","朋友","Image","Word","1000","1150","他人","Mismatch","Formal",""
"","","","","","psychophysics","103","212466","0.0-9.0-0.0-0.0-0.0-0.43","null","","null","","","","","","","","","","","","","key","null","NaN","720","446","f","false","3_Stimuli/T_ambi40.png","他人","Image","Word","1000","1150","他人","Match","Formal",""
"","","","","","psychophysics","104","215467","0.0-9.0-0.0-0.0-0.0-0.44","null","","null","","","","","","","","","","","","","key","null","NaN","720","446","j","false","3_Stimuli/T_ambi40.png","自我","Image","Word","1000","1150","他人","Mismatch","Formal",""
"","","","","","psychophysics","105","218468","0.0-9.0-0.0-0.0-0.0-0.45","null","","null","","","","","","","","","","","","","key","null","NaN","720","446","f","false","3_Stimuli/S_ambi40.png","自我","Word","Image","1150","1000","自我","Match","Formal",""
"","","","","","psychophysics","106","226032","0.0-9.0-0.0-0.0-0.0-0.46","null","","null","","","","","","","","","","","","","key","null","NaN","720","446","f","false","3_Stimuli/S_ambi40.png","自我","Word","Image","1150","1000","自我","Match","Formal",""
"","","","","","psychophysics","107","229466","0.0-9.0-0.0-0.0-0.0-0.47","null","","null","","","","","","","","","","","","","key","null","16.663737704917992","720","446","f","false","3_Stimuli/S_ambi40.png","自我","Image","Word","1000","1150","自我","Match","Formal",""
"","","","","","psychophysics","108","232466","0.0-9.0-0.0-0.0-0.0-0.48","null","","null","","","","","","","","","","","","","key","null","NaN","720","446","j","false","3_Stimuli/T_ambi40.png","朋友","Image","Word","1000","1150","他人","Mismatch","Formal",""
"","","","","","psychophysics","109","235467","0.0-9.0-0.0-0.0-0.0-0.49","null","","null","","","","","","","","","","","","","key","null","NaN","720","446","j","false","3_Stimuli/T_ambi40.png","自我","Word","Image","1150","1000","他人","Mismatch","Formal",""
"","","","","","psychophysics","110","238470","0.0-9.0-0.0-0.0-0.0-0.50","null","","null","","","","","","","","","","","","","key","null","NaN","720","446","f","false","3_Stimuli/S_ambi40.png","自我","Image","Word","1000","1150","自我","Match","Formal",""
"","","","","","psychophysics","111","241466","0.0-9.0-0.0-0.0-0.0-0.51","null","","null","","","","","","","","","","","","","key","null","NaN","720","446","f","false","3_Stimuli/S_ambi40.png","自我","Image","Word","1000","1150","自我","Match","Formal",""
"","","","","","psychophysics","112","244466","0.0-9.0-0.0-0.0-0.0-0.52","null","","null","","","","","","","","","","","","","key","null","NaN","720","446","f","false","3_Stimuli/C_ambi40.png","朋友","Word","Image","1150","1000","朋友","Match","Formal",""
"","","","","","psychophysics","113","247469","0.0-9.0-0.0-0.0-0.0-0.53","null","","null","","","","","","","","","","","","","key","null","NaN","720","446","j","false","3_Stimuli/T_ambi40.png","自我","Image","Word","1000","1150","他人","Mismatch","Formal",""
"","","","","","psychophysics","114","250466","0.0-9.0-0.0-0.0-0.0-0.54","null","","null","","","","","","","","","","","","","key","null","NaN","720","446","j","false","3_Stimuli/S_ambi40.png","他人","Word","Image","1150","1000","自我","Mismatch","Formal",""
"","","","","","psychophysics","115","253470","0.0-9.0-0.0-0.0-0.0-0.55","null","","null","","","","","","","","","","","","","key","null","NaN","720","446","f","false","3_Stimuli/C_ambi40.png","朋友","Image","Word","1000","1150","朋友","Match","Formal",""
"","","","","","psychophysics","116","256470","0.0-9.0-0.0-0.0-0.0-0.56","null","","null","","","","","","","","","","","","","key","null","NaN","720","446","j","false","3_Stimuli/S_ambi40.png","朋友","Image","Word","1000","1150","自我","Mismatch","Formal",""
"","","","","","psychophysics","117","259466","0.0-9.0-0.0-0.0-0.0-0.57","null","","null","","","","","","","","","","","","","key","null","NaN","720","446","j","false","3_Stimuli/S_ambi40.png","他人","Image","Word","1000","1150","自我","Mismatch","Formal",""
"","","","","","psychophysics","118","262470","0.0-9.0-0.0-0.0-0.0-0.58","null","","null","","","","","","","","","","","","","key","null","NaN","720","446","j","false","3_Stimuli/C_ambi40.png","自我","Word","Image","1150","1000","朋友","Mismatch","Formal",""
"","","","","","psychophysics","119","265467","0.0-9.0-0.0-0.0-0.0-0.59","null","","null","","","","","","","","","","","","","key","null","NaN","720","446","f","false","3_Stimuli/T_ambi40.png","他人","Image","Word","1000","1150","他人","Match","Formal",""
"","","","","","psychophysics","120","268466","0.0-9.0-0.0-0.0-0.0-0.60","null","","null","","","","","","","","","","","","","key","null","NaN","720","446","j","false","3_Stimuli/C_ambi40.png","自我","Image","Word","1000","1150","朋友","Mismatch","Formal",""
"","","","","","psychophysics","121","271466","0.0-9.0-0.0-0.0-0.0-0.61","null","","null","","","","","","","","","","","","","key","null","NaN","720","446","f","false","3_Stimuli/T_ambi40.png","他人","Image","Word","1000","1150","他人","Match","Formal",""
"","","","","","psychophysics","122","274466","0.0-9.0-0.0-0.0-0.0-0.62","null","","null","","","","","","","","","","","","","key","null","NaN","720","446","f","false","3_Stimuli/S_ambi40.png","自我","Word","Image","1150","1000","自我","Match","Formal",""
"","","","","","psychophysics","123","277466","0.0-9.0-0.0-0.0-0.0-0.63","null","","null","","","","","","","","","","","","","key","null","NaN","720","446","f","false","3_Stimuli/T_ambi40.png","他人","Word","Image","1150","1000","他人","Match","Formal",""
"","","","","","psychophysics","124","280466","0.0-9.0-0.0-0.0-0.0-0.64","null","","null","","","","","","","","","","","","","key","null","NaN","720","446","f","false","3_Stimuli/T_ambi40.png","他人","Word","Image","1150","1000","他人","Match","Formal",""
"","","","","","psychophysics","125","283466","0.0-9.0-0.0-0.0-0.0-0.65","null","","null","","","","","","","","","","","","","key","null","NaN","720","446","j","false","3_Stimuli/T_ambi40.png","朋友","Word","Image","1150","1000","他人","Mismatch","Formal",""
"","","","","","psychophysics","126","286471","0.0-9.0-0.0-0.0-0.0-0.66","null","","null","","","","","","","","","","","","","key","null","NaN","720","446","f","false","3_Stimuli/C_ambi40.png","朋友","Word","Image","1150","1000","朋友","Match","Formal",""
"","","","","","psychophysics","127","289467","0.0-9.0-0.0-0.0-0.0-0.67","null","","null","","","","","","","","","","","","","key","null","NaN","720","446","f","false","3_Stimuli/C_ambi40.png","朋友","Image","Word","1000","1150","朋友","Match","Formal",""
"","","","","","psychophysics","128","317302","0.0-9.0-0.0-0.0-0.0-0.68","null","","null","","","","","","","","","","","","","key","null","NaN","720","446","j","false","3_Stimuli/S_ambi40.png","朋友","Word","Image","1150","1000","自我","Mismatch","Formal",""
"","","","","","psychophysics","129","319980","0.0-9.0-0.0-0.0-0.0-0.69","null","","null","","","","","","","","","","","","","key","null","16.794613924050626","720","446","j","false","3_Stimuli/C_ambi40.png","他人","Word","Image","1150","1000","朋友","Mismatch","Formal",""
"","","","","","psychophysics","130","322649","0.0-9.0-0.0-0.0-0.0-0.70","null","","null","","","","","","","","","","","","","key","null","16.666000000000018","720","446","j","false","3_Stimuli/C_ambi40.png","他人","Image","Word","1000","1150","朋友","Mismatch","Formal",""
"","","","","","psychophysics","131","325320","0.0-9.0-0.0-0.0-0.0-0.71","null","","null","","","","","","","","","","","","","key","null","16.666000000000185","720","446","f","false","3_Stimuli/S_ambi40.png","自我","Word","Image","1150","1000","自我","Match","Formal",""
"","","","","","psychophysics","132","326530","0.0-9.0-0.0-0.0-0.0-0.72","55","","j","","","","","","","","","","","","","key","j","16.66600000000031","720","446","j","true","3_Stimuli/T_ambi40.png","朋友","Image","Word","1000","1150","他人","Mismatch","Formal",""
"","","","","","psychophysics","133","328079","0.0-9.0-0.0-0.0-0.0-0.73","397","","j","","","","","","","","","","","","","key","j","16.66972527472535","720","446","f","false","3_Stimuli/C_ambi40.png","朋友","Word","Image","1150","1000","朋友","Match","Formal",""
"","","","","","psychophysics","134","329626","0.0-9.0-0.0-0.0-0.0-0.74","391","","f","","","","","","","","","","","","","key","f","16.666000000000317","720","446","f","true","3_Stimuli/S_ambi40.png","自我","Word","Image","1150","1000","自我","Match","Formal",""
"","","","","","psychophysics","135","331046","0.0-9.0-0.0-0.0-0.0-0.75","266","","j","","","","","","","","","","","","","key","j","16.665999999999894","720","446","f","false","3_Stimuli/S_ambi40.png","自我","Word","Image","1150","1000","自我","Match","Formal",""
"","","","","","psychophysics","136","332597","0.0-9.0-0.0-0.0-0.0-0.76","388","","f","","","","","","","","","","","","","key","f","16.666000000000317","720","446","j","false","3_Stimuli/C_ambi40.png","他人","Word","Image","1150","1000","朋友","Mismatch","Formal",""
"","","","","","psychophysics","137","334024","0.0-9.0-0.0-0.0-0.0-0.77","274","","j","","","","","","","","","","","","","key","j","16.665999999999517","720","446","f","false","3_Stimuli/T_ambi40.png","他人","Word","Image","1150","1000","他人","Match","Formal",""
"","","","","","psychophysics","138","335418","0.0-9.0-0.0-0.0-0.0-0.78","240","","f","","","","","","","","","","","","","key","f","16.665999999999894","720","446","f","true","3_Stimuli/T_ambi40.png","他人","Image","Word","1000","1150","他人","Match","Formal",""
"","","","","","psychophysics","139","336809","0.0-9.0-0.0-0.0-0.0-0.79","235","","j","","","","","","","","","","","","","key","j","16.665999999999567","720","446","j","true","3_Stimuli/T_ambi40.png","自我","Image","Word","1000","1150","他人","Mismatch","Formal",""
"","","","","","psychophysics","140","338076","0.0-9.0-0.0-0.0-0.0-0.80","113","","f","","","","","","","","","","","","","key","f","16.66905405405418","720","446","j","false","3_Stimuli/S_ambi40.png","他人","Image","Word","1000","1150","自我","Mismatch","Formal",""
"","","","","","psychophysics","141","341472","0.0-9.0-0.0-0.0-0.0-0.81","null","","null","","","","","","","","","","","","","key","null","16.666000000000256","720","446","f","false","3_Stimuli/C_ambi40.png","朋友","Word","Image","1150","1000","朋友","Match","Formal",""
"","","","","","psychophysics","142","344470","0.0-9.0-0.0-0.0-0.0-0.82","null","","null","","","","","","","","","","","","","key","null","NaN","720","446","j","false","3_Stimuli/C_ambi40.png","自我","Word","Image","1150","1000","朋友","Mismatch","Formal",""
"","","","","","psychophysics","143","347470","0.0-9.0-0.0-0.0-0.0-0.83","null","","null","","","","","","","","","","","","","key","null","NaN","720","446","f","false","3_Stimuli/S_ambi40.png","自我","Image","Word","1000","1150","自我","Match","Formal",""
"","","","","","psychophysics","144","350470","0.0-9.0-0.0-0.0-0.0-0.84","null","","null","","","","","","","","","","","","","key","null","NaN","720","446","j","false","3_Stimuli/T_ambi40.png","朋友","Word","Image","1150","1000","他人","Mismatch","Formal",""
"","","","","","psychophysics","145","353467","0.0-9.0-0.0-0.0-0.0-0.85","null","","null","","","","","","","","","","","","","key","null","NaN","720","446","f","false","3_Stimuli/T_ambi40.png","他人","Word","Image","1150","1000","他人","Match","Formal",""
"","","","","","psychophysics","146","356466","0.0-9.0-0.0-0.0-0.0-0.86","null","","null","","","","","","","","","","","","","key","null","NaN","720","446","j","false","3_Stimuli/C_ambi40.png","他人","Image","Word","1000","1150","朋友","Mismatch","Formal",""
"","","","","","psychophysics","147","359470","0.0-9.0-0.0-0.0-0.0-0.87","null","","null","","","","","","","","","","","","","key","null","NaN","720","446","f","false","3_Stimuli/S_ambi40.png","自我","Image","Word","1000","1150","自我","Match","Formal",""
"","","","","","psychophysics","148","362470","0.0-9.0-0.0-0.0-0.0-0.88","null","","null","","","","","","","","","","","","","key","null","NaN","720","446","j","false","3_Stimuli/S_ambi40.png","朋友","Image","Word","1000","1150","自我","Mismatch","Formal",""
"","","","","","psychophysics","149","365468","0.0-9.0-0.0-0.0-0.0-0.89","null","","null","","","","","","","","","","","","","key","null","NaN","720","446","j","false","3_Stimuli/C_ambi40.png","自我","Image","Word","1000","1150","朋友","Mismatch","Formal",""
"","","","","","psychophysics","150","368139","0.0-9.0-0.0-0.0-0.0-0.90","null","","null","","","","","","","","","","","","","key","null","16.693714285715085","720","446","f","false","3_Stimuli/C_ambi40.png","朋友","Image","Word","1000","1150","朋友","Match","Formal",""
"","","","","","psychophysics","151","370799","0.0-9.0-0.0-0.0-0.0-0.91","null","","null","","","","","","","","","","","","","key","null","16.666000000000018","720","446","j","false","3_Stimuli/S_ambi40.png","朋友","Word","Image","1150","1000","自我","Mismatch","Formal",""
"","","","","","psychophysics","152","372744","0.0-9.0-0.0-0.0-0.0-0.92","785","","j","","","","","","","","","","","","","key","j","16.665999999999716","720","446","j","true","3_Stimuli/S_ambi40.png","他人","Word","Image","1150","1000","自我","Mismatch","Formal",""
"","","","","","psychophysics","153","374458","0.0-9.0-0.0-0.0-0.0-0.93","558","","j","","","","","","","","","","","","","key","j","16.666000000000032","720","446","f","false","3_Stimuli/T_ambi40.png","他人","Image","Word","1000","1150","他人","Match","Formal",""
"","","","","","psychophysics","154","375796","0.0-9.0-0.0-0.0-0.0-0.94","181","","j","","","","","","","","","","","","","key","j","16.666000000000423","720","446","f","false","3_Stimuli/C_ambi40.png","朋友","Image","Word","1000","1150","朋友","Match","Formal",""
"","","","","","psychophysics","155","378466","0.0-9.0-0.0-0.0-0.0-0.95","null","","null","","","","","","","","","","","","","key","null","16.666000000000025","720","446","j","false","3_Stimuli/T_ambi40.png","自我","Word","Image","1150","1000","他人","Mismatch","Formal",""
"","","","","","psychophysics","156","381467","0.0-9.0-0.0-0.0-0.0-0.96","null","","null","","","","","","","","","","","","","key","null","NaN","720","446","j","false","3_Stimuli/S_ambi40.png","朋友","Word","Image","1150","1000","自我","Mismatch","Formal",""
"","","","","","psychophysics","157","384470","0.0-9.0-0.0-0.0-0.0-0.97","null","","null","","","","","","","","","","","","","key","null","NaN","720","446","f","false","3_Stimuli/C_ambi40.png","朋友","Word","Image","1150","1000","朋友","Match","Formal",""
"","","","","","psychophysics","158","387466","0.0-9.0-0.0-0.0-0.0-0.98","null","","null","","","","","","","","","","","","","key","null","NaN","720","446","j","false","3_Stimuli/T_ambi40.png","朋友","Image","Word","1000","1150","他人","Mismatch","Formal",""
"","","","","","psychophysics","159","390471","0.0-9.0-0.0-0.0-0.0-0.99","null","","null","","","","","","","","","","","","","key","null","NaN","720","446","f","false","3_Stimuli/S_ambi40.png","自我","Image","Word","1000","1150","自我","Match","Formal",""
"","","","","","psychophysics","160","393470","0.0-9.0-0.0-0.0-0.0-0.100","null","","null","","","","","","","","","","","","","key","null","NaN","720","446","f","false","3_Stimuli/S_ambi40.png","自我","Word","Image","1150","1000","自我","Match","Formal",""
"","","","","","psychophysics","161","396470","0.0-9.0-0.0-0.0-0.0-0.101","null","","null","","","","","","","","","","","","","key","null","NaN","720","446","j","false","3_Stimuli/C_ambi40.png","他人","Image","Word","1000","1150","朋友","Mismatch","Formal",""
"","","","","","psychophysics","162","399470","0.0-9.0-0.0-0.0-0.0-0.102","null","","null","","","","","","","","","","","","","key","null","NaN","720","446","j","false","3_Stimuli/T_ambi40.png","朋友","Word","Image","1150","1000","他人","Mismatch","Formal",""
"","","","","","psychophysics","163","402466","0.0-9.0-0.0-0.0-0.0-0.103","null","","null","","","","","","","","","","","","","key","null","NaN","720","446","f","false","3_Stimuli/C_ambi40.png","朋友","Image","Word","1000","1150","朋友","Match","Formal",""
"","","","","","psychophysics","164","405471","0.0-9.0-0.0-0.0-0.0-0.104","null","","null","","","","","","","","","","","","","key","null","NaN","720","446","f","false","3_Stimuli/T_ambi40.png","他人","Word","Image","1150","1000","他人","Match","Formal",""
"","","","","","psychophysics","165","408466","0.0-9.0-0.0-0.0-0.0-0.105","null","","null","","","","","","","","","","","","","key","null","NaN","720","446","j","false","3_Stimuli/C_ambi40.png","他人","Word","Image","1150","1000","朋友","Mismatch","Formal",""
"","","","","","psychophysics","166","411130","0.0-9.0-0.0-0.0-0.0-0.106","null","","null","","","","","","","","","","","","","key","null","16.62423529411899","720","446","j","false","3_Stimuli/C_ambi40.png","自我","Image","Word","1000","1150","朋友","Mismatch","Formal",""
"","","","","","psychophysics","167","412549","0.0-9.0-0.0-0.0-0.0-0.107","258","","j","","","","","","","","","","","","","key","j","16.665999999999894","720","446","f","false","3_Stimuli/S_ambi40.png","自我","Image","Word","1000","1150","自我","Match","Formal",""
"","","","","","psychophysics","168","415469","0.0-9.0-0.0-0.0-0.0-0.108","null","","null","","","","","","","","","","","","","key","null","16.66600000000035","720","446","f","false","3_Stimuli/C_ambi40.png","朋友","Image","Word","1000","1150","朋友","Match","Formal",""
"","","","","","psychophysics","169","418470","0.0-9.0-0.0-0.0-0.0-0.109","null","","null","","","","","","","","","","","","","key","null","NaN","720","446","f","false","3_Stimuli/T_ambi40.png","他人","Image","Word","1000","1150","他人","Match","Formal",""
"","","","","","psychophysics","170","421466","0.0-9.0-0.0-0.0-0.0-0.110","null","","null","","","","","","","","","","","","","key","null","NaN","720","446","j","false","3_Stimuli/T_ambi40.png","自我","Word","Image","1150","1000","他人","Mismatch","Formal",""
"","","","","","psychophysics","171","424466","0.0-9.0-0.0-0.0-0.0-0.111","null","","null","","","","","","","","","","","","","key","null","NaN","720","446","j","false","3_Stimuli/S_ambi40.png","他人","Word","Image","1150","1000","自我","Mismatch","Formal",""
"","","","","","psychophysics","172","427470","0.0-9.0-0.0-0.0-0.0-0.112","null","","null","","","","","","","","","","","","","key","null","NaN","720","446","j","false","3_Stimuli/T_ambi40.png","自我","Image","Word","1000","1150","他人","Mismatch","Formal",""
"","","","","","psychophysics","173","430470","0.0-9.0-0.0-0.0-0.0-0.113","null","","null","","","","","","","","","","","","","key","null","NaN","720","446","j","false","3_Stimuli/S_ambi40.png","朋友","Image","Word","1000","1150","自我","Mismatch","Formal",""
"","","","","","psychophysics","174","433465","0.0-9.0-0.0-0.0-0.0-0.114","null","","null","","","","","","","","","","","","","key","null","NaN","720","446","j","false","3_Stimuli/S_ambi40.png","他人","Image","Word","1000","1150","自我","Mismatch","Formal",""
"","","","","","psychophysics","175","436466","0.0-9.0-0.0-0.0-0.0-0.115","null","","null","","","","","","","","","","","","","key","null","NaN","720","446","f","false","3_Stimuli/S_ambi40.png","自我","Word","Image","1150","1000","自我","Match","Formal",""
"","","","","","psychophysics","176","439466","0.0-9.0-0.0-0.0-0.0-0.116","null","","null","","","","","","","","","","","","","key","null","NaN","720","446","f","false","3_Stimuli/T_ambi40.png","他人","Word","Image","1150","1000","他人","Match","Formal",""
"","","","","","psychophysics","177","442466","0.0-9.0-0.0-0.0-0.0-0.117","null","","null","","","","","","","","","","","","","key","null","NaN","720","446","f","false","3_Stimuli/T_ambi40.png","他人","Image","Word","1000","1150","他人","Match","Formal",""
"","","","","","psychophysics","178","445469","0.0-9.0-0.0-0.0-0.0-0.118","null","","null","","","","","","","","","","","","","key","null","NaN","720","446","j","false","3_Stimuli/C_ambi40.png","自我","Word","Image","1150","1000","朋友","Mismatch","Formal",""
"","","","","","psychophysics","179","448470","0.0-9.0-0.0-0.0-0.0-0.119","null","","null","","","","","","","","","","","","","key","null","NaN","720","446","f","false","3_Stimuli/C_ambi40.png","朋友","Word","Image","1150","1000","朋友","Match","Formal",""
"","","","","","html-keyboard-response","180","464153","0.0-9.0-0.0-0.0-1.0","15680","<style>.context{color:white; font-size: 35px; line-height:40px}</style>                        <div><p class='context'>您正确回答了12% 的试次。</p><p class='context'>您的平均反应时为495毫秒。</p><p> <div style = 'color: green'><按任意键进入休息></div></p>","j","","","","","","","","","","","","","","","","","","","","","","","","","","","","",""
"","","","","","html-button-response","181","466966","0.0-9.0-0.0-0.0-2.0","2810","
                  <p>您当前还剩余5组实验</p>
                  <p>现在是休息时间，当您结束休息后，您可以点击 结束休息 按钮 继续</p>
                  <p>建议休息时间还剩余<span id=""iii"">60</span>秒</p>","0","","","","","","","","","","","","","","","","","","","","","","","","","","","","",""
"","","","","","psychophysics","182","468755","0.0-9.0-0.0-0.0-0.1-0.120","633","","j","","","","","","","","","","","","","key","j","16.666000000000185","720","446","j","true","3_Stimuli/C_ambi40.png","自我","Image","Word","1000","1150","朋友","Mismatch","Formal",""
"","","","","","psychophysics","183","470565","0.0-9.0-0.0-0.0-0.1-0.121","656","","j","","","","","","","","","","","","","key","j","16.665999999999887","720","446","j","true","3_Stimuli/C_ambi40.png","他人","Word","Image","1150","1000","朋友","Mismatch","Formal",""
"","","","","","psychophysics","184","472246","0.0-9.0-0.0-0.0-0.1-0.122","524","","j","","","","","","","","","","","","","key","j","16.665999999999766","720","446","j","true","3_Stimuli/S_ambi40.png","他人","Word","Image","1150","1000","自我","Mismatch","Formal",""
"","","","","","psychophysics","185","475466","0.0-9.0-0.0-0.0-0.1-0.123","null","","null","","","","","","","","","","","","","key","null","16.742181818181642","720","446","f","false","3_Stimuli/T_ambi40.png","他人","Image","Word","1000","1150","他人","Match","Formal",""
"","","","","","psychophysics","186","478470","0.0-9.0-0.0-0.0-0.1-0.124","null","","null","","","","","","","","","","","","","key","null","NaN","720","446","f","false","3_Stimuli/S_ambi40.png","自我","Image","Word","1000","1150","自我","Match","Formal",""
"","","","","","psychophysics","187","481470","0.0-9.0-0.0-0.0-0.1-0.125","null","","null","","","","","","","","","","","","","key","null","NaN","720","446","j","false","3_Stimuli/C_ambi40.png","他人","Image","Word","1000","1150","朋友","Mismatch","Formal",""
"","","","","","psychophysics","188","484466","0.0-9.0-0.0-0.0-0.1-0.126","null","","null","","","","","","","","","","","","","key","null","NaN","720","446","j","false","3_Stimuli/T_ambi40.png","朋友","Image","Word","1000","1150","他人","Mismatch","Formal",""
"","","","","","psychophysics","189","487466","0.0-9.0-0.0-0.0-0.1-0.127","null","","null","","","","","","","","","","","","","key","null","NaN","720","446","j","false","3_Stimuli/S_ambi40.png","朋友","Word","Image","1150","1000","自我","Mismatch","Formal",""
"","","","","","psychophysics","190","490465","0.0-9.0-0.0-0.0-0.1-0.128","null","","null","","","","","","","","","","","","","key","null","NaN","720","446","j","false","3_Stimuli/T_ambi40.png","朋友","Word","Image","1150","1000","他人","Mismatch","Formal",""
"","","","","","psychophysics","191","493470","0.0-9.0-0.0-0.0-0.1-0.129","null","","null","","","","","","","","","","","","","key","null","NaN","720","446","f","false","3_Stimuli/T_ambi40.png","他人","Word","Image","1150","1000","他人","Match","Formal",""
"","","","","","psychophysics","192","496470","0.0-9.0-0.0-0.0-0.1-0.130","null","","null","","","","","","","","","","","","","key","null","NaN","720","446","f","false","3_Stimuli/C_ambi40.png","朋友","Word","Image","1150","1000","朋友","Match","Formal",""
"","","","","","psychophysics","193","499465","0.0-9.0-0.0-0.0-0.1-0.131","null","","null","","","","","","","","","","","","","key","null","NaN","720","446","j","false","3_Stimuli/S_ambi40.png","他人","Image","Word","1000","1150","自我","Mismatch","Formal",""
"","","","","","psychophysics","194","502470","0.0-9.0-0.0-0.0-0.1-0.132","null","","null","","","","","","","","","","","","","key","null","NaN","720","446","j","false","3_Stimuli/T_ambi40.png","自我","Image","Word","1000","1150","他人","Mismatch","Formal",""
"","","","","","psychophysics","195","505466","0.0-9.0-0.0-0.0-0.1-0.133","null","","null","","","","","","","","","","","","","key","null","NaN","720","446","j","false","3_Stimuli/S_ambi40.png","朋友","Image","Word","1000","1150","自我","Mismatch","Formal",""
"","","","","","psychophysics","196","508466","0.0-9.0-0.0-0.0-0.1-0.134","null","","null","","","","","","","","","","","","","key","null","NaN","720","446","f","false","3_Stimuli/C_ambi40.png","朋友","Word","Image","1150","1000","朋友","Match","Formal",""
"","","","","","psychophysics","197","511470","0.0-9.0-0.0-0.0-0.1-0.135","null","","null","","","","","","","","","","","","","key","null","NaN","720","446","f","false","3_Stimuli/T_ambi40.png","他人","Image","Word","1000","1150","他人","Match","Formal",""
"","","","","","psychophysics","198","514466","0.0-9.0-0.0-0.0-0.1-0.136","null","","null","","","","","","","","","","","","","key","null","NaN","720","446","f","false","3_Stimuli/C_ambi40.png","朋友","Image","Word","1000","1150","朋友","Match","Formal",""
"","","","","","psychophysics","199","517469","0.0-9.0-0.0-0.0-0.1-0.137","null","","null","","","","","","","","","","","","","key","null","NaN","720","446","f","false","3_Stimuli/S_ambi40.png","自我","Word","Image","1150","1000","自我","Match","Formal",""
"","","","","","psychophysics","200","520466","0.0-9.0-0.0-0.0-0.1-0.138","null","","null","","","","","","","","","","","","","key","null","NaN","720","446","f","false","3_Stimuli/T_ambi40.png","他人","Word","Image","1150","1000","他人","Match","Formal",""
"","","","","","psychophysics","201","523469","0.0-9.0-0.0-0.0-0.1-0.139","null","","null","","","","","","","","","","","","","key","null","NaN","720","446","f","false","3_Stimuli/C_ambi40.png","朋友","Image","Word","1000","1150","朋友","Match","Formal",""
"","","","","","psychophysics","202","526470","0.0-9.0-0.0-0.0-0.1-0.140","null","","null","","","","","","","","","","","","","key","null","NaN","720","446","f","false","3_Stimuli/S_ambi40.png","自我","Image","Word","1000","1150","自我","Match","Formal",""
"","","","","","psychophysics","203","529469","0.0-9.0-0.0-0.0-0.1-0.141","null","","null","","","","","","","","","","","","","key","null","NaN","720","446","j","false","3_Stimuli/T_ambi40.png","自我","Word","Image","1150","1000","他人","Mismatch","Formal",""
"","","","","","psychophysics","204","532467","0.0-9.0-0.0-0.0-0.1-0.142","null","","null","","","","","","","","","","","","","key","null","NaN","720","446","f","false","3_Stimuli/S_ambi40.png","自我","Word","Image","1150","1000","自我","Match","Formal",""
"","","","","","psychophysics","205","585392","0.0-9.0-0.0-0.0-0.1-0.143","null","","null","","","","","","","","","","","","","key","null","NaN","720","446","j","false","3_Stimuli/C_ambi40.png","自我","Word","Image","1150","1000","朋友","Mismatch","Formal",""
"","","","","","psychophysics","206","587248","0.0-9.0-0.0-0.0-0.1-0.144","694","","j","","","","","","","","","","","","","key","j","16.682154545454647","720","446","f","false","3_Stimuli/C_ambi40.png","朋友","Image","Word","1000","1150","朋友","Match","Formal",""
"","","","","","psychophysics","207","590466","0.0-9.0-0.0-0.0-0.1-0.145","null","","null","","","","","","","","","","","","","key","null","16.66600000000021","720","446","f","false","3_Stimuli/S_ambi40.png","自我","Image","Word","1000","1150","自我","Match","Formal",""
"","","","","","psychophysics","208","593471","0.0-9.0-0.0-0.0-0.1-0.146","null","","null","","","","","","","","","","","","","key","null","NaN","720","446","j","false","3_Stimuli/T_ambi40.png","朋友","Image","Word","1000","1150","他人","Mismatch","Formal",""
"","","","","","psychophysics","209","596467","0.0-9.0-0.0-0.0-0.1-0.147","null","","null","","","","","","","","","","","","","key","null","NaN","720","446","j","false","3_Stimuli/C_ambi40.png","自我","Image","Word","1000","1150","朋友","Mismatch","Formal",""
"","","","","","psychophysics","210","599467","0.0-9.0-0.0-0.0-0.1-0.148","null","","null","","","","","","","","","","","","","key","null","NaN","720","446","j","false","3_Stimuli/T_ambi40.png","自我","Image","Word","1000","1150","他人","Mismatch","Formal",""
"","","","","","psychophysics","211","602470","0.0-9.0-0.0-0.0-0.1-0.149","null","","null","","","","","","","","","","","","","key","null","NaN","720","446","j","false","3_Stimuli/T_ambi40.png","自我","Word","Image","1150","1000","他人","Mismatch","Formal",""
"","","","","","psychophysics","212","605465","0.0-9.0-0.0-0.0-0.1-0.150","null","","null","","","","","","","","","","","","","key","null","NaN","720","446","f","false","3_Stimuli/T_ambi40.png","他人","Word","Image","1150","1000","他人","Match","Formal",""
"","","","","","psychophysics","213","608466","0.0-9.0-0.0-0.0-0.1-0.151","null","","null","","","","","","","","","","","","","key","null","NaN","720","446","j","false","3_Stimuli/S_ambi40.png","朋友","Word","Image","1150","1000","自我","Mismatch","Formal",""
"","","","","","psychophysics","214","611470","0.0-9.0-0.0-0.0-0.1-0.152","null","","null","","","","","","","","","","","","","key","null","NaN","720","446","f","false","3_Stimuli/T_ambi40.png","他人","Word","Image","1150","1000","他人","Match","Formal",""
"","","","","","psychophysics","215","614466","0.0-9.0-0.0-0.0-0.1-0.153","null","","null","","","","","","","","","","","","","key","null","NaN","720","446","j","false","3_Stimuli/S_ambi40.png","朋友","Image","Word","1000","1150","自我","Mismatch","Formal",""
"","","","","","psychophysics","216","617466","0.0-9.0-0.0-0.0-0.1-0.154","null","","null","","","","","","","","","","","","","key","null","NaN","720","446","f","false","3_Stimuli/T_ambi40.png","他人","Image","Word","1000","1150","他人","Match","Formal",""
"","","","","","psychophysics","217","620468","0.0-9.0-0.0-0.0-0.1-0.155","null","","null","","","","","","","","","","","","","key","null","NaN","720","446","f","false","3_Stimuli/C_ambi40.png","朋友","Image","Word","1000","1150","朋友","Match","Formal",""
"","","","","","psychophysics","218","623466","0.0-9.0-0.0-0.0-0.1-0.156","null","","null","","","","","","","","","","","","","key","null","NaN","720","446","f","false","3_Stimuli/C_ambi40.png","朋友","Word","Image","1150","1000","朋友","Match","Formal",""
"","","","","","psychophysics","219","626468","0.0-9.0-0.0-0.0-0.1-0.157","null","","null","","","","","","","","","","","","","key","null","NaN","720","446","j","false","3_Stimuli/S_ambi40.png","他人","Image","Word","1000","1150","自我","Mismatch","Formal",""
"","","","","","psychophysics","220","629469","0.0-9.0-0.0-0.0-0.1-0.158","null","","null","","","","","","","","","","","","","key","null","NaN","720","446","j","false","3_Stimuli/T_ambi40.png","朋友","Word","Image","1150","1000","他人","Mismatch","Formal",""
"","","","","","psychophysics","221","632468","0.0-9.0-0.0-0.0-0.1-0.159","null","","null","","","","","","","","","","","","","key","null","NaN","720","446","f","false","3_Stimuli/S_ambi40.png","自我","Word","Image","1150","1000","自我","Match","Formal",""
"","","","","","psychophysics","222","635466","0.0-9.0-0.0-0.0-0.1-0.160","null","","null","","","","","","","","","","","","","key","null","NaN","720","446","j","false","3_Stimuli/C_ambi40.png","自我","Word","Image","1150","1000","朋友","Mismatch","Formal",""
"","","","","","psychophysics","223","638467","0.0-9.0-0.0-0.0-0.1-0.161","null","","null","","","","","","","","","","","","","key","null","NaN","720","446","f","false","3_Stimuli/C_ambi40.png","朋友","Word","Image","1150","1000","朋友","Match","Formal",""
"","","","","","psychophysics","224","641469","0.0-9.0-0.0-0.0-0.1-0.162","null","","null","","","","","","","","","","","","","key","null","NaN","720","446","f","false","3_Stimuli/S_ambi40.png","自我","Image","Word","1000","1150","自我","Match","Formal",""
"","","","","","psychophysics","225","644466","0.0-9.0-0.0-0.0-0.1-0.163","null","","null","","","","","","","","","","","","","key","null","NaN","720","446","j","false","3_Stimuli/C_ambi40.png","他人","Image","Word","1000","1150","朋友","Mismatch","Formal",""
"","","","","","psychophysics","226","647465","0.0-9.0-0.0-0.0-0.1-0.164","null","","null","","","","","","","","","","","","","key","null","NaN","720","446","f","false","3_Stimuli/S_ambi40.png","自我","Word","Image","1150","1000","自我","Match","Formal",""
"","","","","","psychophysics","227","709469","0.0-9.0-0.0-0.0-0.1-0.165","null","","null","","","","","","","","","","","","","key","null","NaN","720","446","j","false","3_Stimuli/C_ambi40.png","他人","Word","Image","1150","1000","朋友","Mismatch","Formal",""
"","","","","","psychophysics","228","729258","0.0-9.0-0.0-0.0-0.1-0.166","null","","null","","","","","","","","","","","","","key","null","NaN","720","446","f","false","3_Stimuli/T_ambi40.png","他人","Image","Word","1000","1150","他人","Match","Formal",""
"","","","","","psychophysics","229","731938","0.0-9.0-0.0-0.0-0.1-0.167","null","","null","","","","","","","","","","","","","key","null","16.657246835443598","720","446","j","false","3_Stimuli/S_ambi40.png","他人","Word","Image","1150","1000","自我","Mismatch","Formal",""
"","","","","","psychophysics","230","734602","0.0-9.0-0.0-0.0-0.1-0.168","null","","null","","","","","","","","","","","","","key","null","16.666000000000018","720","446","j","false","3_Stimuli/T_ambi40.png","朋友","Word","Image","1150","1000","他人","Mismatch","Formal",""
"","","","","","psychophysics","231","737272","0.0-9.0-0.0-0.0-0.1-0.169","null","","null","","","","","","","","","","","","","key","null","16.666000000000018","720","446","f","false","3_Stimuli/C_ambi40.png","朋友","Image","Word","1000","1150","朋友","Match","Formal",""
"","","","","","psychophysics","232","740466","0.0-9.0-0.0-0.0-0.1-0.170","null","","null","","","","","","","","","","","","","key","null","16.665999999998704","720","446","f","false","3_Stimuli/S_ambi40.png","自我","Word","Image","1150","1000","自我","Match","Formal",""
"","","","","","psychophysics","233","743466","0.0-9.0-0.0-0.0-0.1-0.171","null","","null","","","","","","","","","","","","","key","null","NaN","720","446","f","false","3_Stimuli/C_ambi40.png","朋友","Word","Image","1150","1000","朋友","Match","Formal",""
"","","","","","psychophysics","234","746466","0.0-9.0-0.0-0.0-0.1-0.172","null","","null","","","","","","","","","","","","","key","null","NaN","720","446","f","false","3_Stimuli/T_ambi40.png","他人","Word","Image","1150","1000","他人","Match","Formal",""
"","","","","","psychophysics","235","749469","0.0-9.0-0.0-0.0-0.1-0.173","null","","null","","","","","","","","","","","","","key","null","NaN","720","446","j","false","3_Stimuli/T_ambi40.png","朋友","Image","Word","1000","1150","他人","Mismatch","Formal",""
"","","","","","psychophysics","236","752466","0.0-9.0-0.0-0.0-0.1-0.174","null","","null","","","","","","","","","","","","","key","null","NaN","720","446","j","false","3_Stimuli/C_ambi40.png","自我","Image","Word","1000","1150","朋友","Mismatch","Formal",""
"","","","","","psychophysics","237","755467","0.0-9.0-0.0-0.0-0.1-0.175","null","","null","","","","","","","","","","","","","key","null","NaN","720","446","f","false","3_Stimuli/T_ambi40.png","他人","Image","Word","1000","1150","他人","Match","Formal",""
"","","","","","psychophysics","238","758466","0.0-9.0-0.0-0.0-0.1-0.176","null","","null","","","","","","","","","","","","","key","null","NaN","720","446","j","false","3_Stimuli/C_ambi40.png","他人","Image","Word","1000","1150","朋友","Mismatch","Formal",""
"","","","","","psychophysics","239","761467","0.0-9.0-0.0-0.0-0.1-0.177","null","","null","","","","","","","","","","","","","key","null","NaN","720","446","f","false","3_Stimuli/S_ambi40.png","自我","Word","Image","1150","1000","自我","Match","Formal",""
"","","","","","psychophysics","240","764469","0.0-9.0-0.0-0.0-0.1-0.178","null","","null","","","","","","","","","","","","","key","null","NaN","720","446","f","false","3_Stimuli/S_ambi40.png","自我","Image","Word","1000","1150","自我","Match","Formal",""
"","","","","","psychophysics","241","767469","0.0-9.0-0.0-0.0-0.1-0.179","null","","null","","","","","","","","","","","","","key","null","NaN","720","446","f","false","3_Stimuli/C_ambi40.png","朋友","Word","Image","1150","1000","朋友","Match","Formal",""
"","","","","","psychophysics","242","770468","0.0-9.0-0.0-0.0-0.1-0.180","null","","null","","","","","","","","","","","","","key","null","NaN","720","446","j","false","3_Stimuli/C_ambi40.png","自我","Word","Image","1150","1000","朋友","Mismatch","Formal",""
"","","","","","psychophysics","243","773466","0.0-9.0-0.0-0.0-0.1-0.181","null","","null","","","","","","","","","","","","","key","null","NaN","720","446","f","false","3_Stimuli/T_ambi40.png","他人","Word","Image","1150","1000","他人","Match","Formal",""
"","","","","","psychophysics","244","776466","0.0-9.0-0.0-0.0-0.1-0.182","null","","null","","","","","","","","","","","","","key","null","NaN","720","446","j","false","3_Stimuli/T_ambi40.png","自我","Image","Word","1000","1150","他人","Mismatch","Formal",""
"","","","","","psychophysics","245","779469","0.0-9.0-0.0-0.0-0.1-0.183","null","","null","","","","","","","","","","","","","key","null","NaN","720","446","f","false","3_Stimuli/C_ambi40.png","朋友","Image","Word","1000","1150","朋友","Match","Formal",""
"","","","","","psychophysics","246","782469","0.0-9.0-0.0-0.0-0.1-0.184","null","","null","","","","","","","","","","","","","key","null","NaN","720","446","j","false","3_Stimuli/S_ambi40.png","他人","Image","Word","1000","1150","自我","Mismatch","Formal",""
"","","","","","psychophysics","247","785469","0.0-9.0-0.0-0.0-0.1-0.185","null","","null","","","","","","","","","","","","","key","null","NaN","720","446","f","false","3_Stimuli/S_ambi40.png","自我","Image","Word","1000","1150","自我","Match","Formal",""
"","","","","","psychophysics","248","788467","0.0-9.0-0.0-0.0-0.1-0.186","null","","null","","","","","","","","","","","","","key","null","NaN","720","446","j","false","3_Stimuli/S_ambi40.png","他人","Word","Image","1150","1000","自我","Mismatch","Formal",""
"","","","","","psychophysics","249","791469","0.0-9.0-0.0-0.0-0.1-0.187","null","","null","","","","","","","","","","","","","key","null","NaN","720","446","j","false","3_Stimuli/S_ambi40.png","朋友","Image","Word","1000","1150","自我","Mismatch","Formal",""
"","","","","","psychophysics","250","794469","0.0-9.0-0.0-0.0-0.1-0.188","null","","null","","","","","","","","","","","","","key","null","NaN","720","446","f","false","3_Stimuli/T_ambi40.png","他人","Image","Word","1000","1150","他人","Match","Formal",""
"","","","","","psychophysics","251","797467","0.0-9.0-0.0-0.0-0.1-0.189","null","","null","","","","","","","","","","","","","key","null","NaN","720","446","j","false","3_Stimuli/T_ambi40.png","自我","Word","Image","1150","1000","他人","Mismatch","Formal",""
"","","","","","psychophysics","252","829465","0.0-9.0-0.0-0.0-0.1-0.190","null","","null","","","","","","","","","","","","","key","null","NaN","720","446","j","false","3_Stimuli/S_ambi40.png","朋友","Word","Image","1150","1000","自我","Mismatch","Formal",""
"","","","","","psychophysics","253","842732","0.0-9.0-0.0-0.0-0.1-0.191","null","","null","","","","","","","","","","","","","key","null","NaN","720","446","j","false","3_Stimuli/C_ambi40.png","他人","Word","Image","1150","1000","朋友","Mismatch","Formal",""
"","","","","","psychophysics","254","845409","0.0-9.0-0.0-0.0-0.1-0.192","null","","null","","","","","","","","","","","","","key","null","16.633974842767454","720","446","j","false","3_Stimuli/T_ambi40.png","自我","Word","Image","1150","1000","他人","Mismatch","Formal",""
"","","","","","psychophysics","255","848466","0.0-9.0-0.0-0.0-0.1-0.193","null","","null","","","","","","","","","","","","","key","null","16.666000000000086","720","446","j","false","3_Stimuli/S_ambi40.png","他人","Word","Image","1150","1000","自我","Mismatch","Formal",""
"","","","","","psychophysics","256","851466","0.0-9.0-0.0-0.0-0.1-0.194","null","","null","","","","","","","","","","","","","key","null","NaN","720","446","j","false","3_Stimuli/S_ambi40.png","朋友","Word","Image","1150","1000","自我","Mismatch","Formal",""
"","","","","","psychophysics","257","854467","0.0-9.0-0.0-0.0-0.1-0.195","null","","null","","","","","","","","","","","","","key","null","NaN","720","446","f","false","3_Stimuli/C_ambi40.png","朋友","Image","Word","1000","1150","朋友","Match","Formal",""
"","","","","","psychophysics","258","857468","0.0-9.0-0.0-0.0-0.1-0.196","null","","null","","","","","","","","","","","","","key","null","NaN","720","446","f","false","3_Stimuli/T_ambi40.png","他人","Image","Word","1000","1150","他人","Match","Formal",""
"","","","","","psychophysics","259","860465","0.0-9.0-0.0-0.0-0.1-0.197","null","","null","","","","","","","","","","","","","key","null","NaN","720","446","f","false","3_Stimuli/T_ambi40.png","他人","Word","Image","1150","1000","他人","Match","Formal",""
"","","","","","psychophysics","260","863466","0.0-9.0-0.0-0.0-0.1-0.198","null","","null","","","","","","","","","","","","","key","null","NaN","720","446","j","false","3_Stimuli/S_ambi40.png","朋友","Image","Word","1000","1150","自我","Mismatch","Formal",""
"","","","","","psychophysics","261","866469","0.0-9.0-0.0-0.0-0.1-0.199","null","","null","","","","","","","","","","","","","key","null","NaN","720","446","j","false","3_Stimuli/S_ambi40.png","他人","Image","Word","1000","1150","自我","Mismatch","Formal",""
"","","","","","psychophysics","262","869470","0.0-9.0-0.0-0.0-0.1-0.200","null","","null","","","","","","","","","","","","","key","null","NaN","720","446","f","false","3_Stimuli/S_ambi40.png","自我","Image","Word","1000","1150","自我","Match","Formal",""
"","","","","","psychophysics","263","872469","0.0-9.0-0.0-0.0-0.1-0.201","null","","null","","","","","","","","","","","","","key","null","NaN","720","446","f","false","3_Stimuli/C_ambi40.png","朋友","Word","Image","1150","1000","朋友","Match","Formal",""
"","","","","","psychophysics","264","875465","0.0-9.0-0.0-0.0-0.1-0.202","null","","null","","","","","","","","","","","","","key","null","NaN","720","446","f","false","3_Stimuli/S_ambi40.png","自我","Word","Image","1150","1000","自我","Match","Formal",""
"","","","","","psychophysics","265","878469","0.0-9.0-0.0-0.0-0.1-0.203","null","","null","","","","","","","","","","","","","key","null","NaN","720","446","f","false","3_Stimuli/C_ambi40.png","朋友","Word","Image","1150","1000","朋友","Match","Formal",""
"","","","","","psychophysics","266","881469","0.0-9.0-0.0-0.0-0.1-0.204","null","","null","","","","","","","","","","","","","key","null","NaN","720","446","f","false","3_Stimuli/S_ambi40.png","自我","Image","Word","1000","1150","自我","Match","Formal",""
"","","","","","psychophysics","267","884468","0.0-9.0-0.0-0.0-0.1-0.205","null","","null","","","","","","","","","","","","","key","null","NaN","720","446","j","false","3_Stimuli/T_ambi40.png","自我","Image","Word","1000","1150","他人","Mismatch","Formal",""
"","","","","","psychophysics","268","887469","0.0-9.0-0.0-0.0-0.1-0.206","null","","null","","","","","","","","","","","","","key","null","NaN","720","446","j","false","3_Stimuli/T_ambi40.png","朋友","Image","Word","1000","1150","他人","Mismatch","Formal",""
"","","","","","psychophysics","269","890132","0.0-9.0-0.0-0.0-0.1-0.207","null","","null","","","","","","","","","","","","","key","null","16.74313636363579","720","446","j","false","3_Stimuli/T_ambi40.png","朋友","Word","Image","1150","1000","他人","Mismatch","Formal",""
"","","","","","psychophysics","270","893466","0.0-9.0-0.0-0.0-0.1-0.208","null","","null","","","","","","","","","","","","","key","null","16.66600000000714","720","446","j","false","3_Stimuli/C_ambi40.png","他人","Word","Image","1150","1000","朋友","Mismatch","Formal",""
"","","","","","psychophysics","271","896470","0.0-9.0-0.0-0.0-0.1-0.209","null","","null","","","","","","","","","","","","","key","null","NaN","720","446","f","false","3_Stimuli/T_ambi40.png","他人","Image","Word","1000","1150","他人","Match","Formal",""
"","","","","","psychophysics","272","899468","0.0-9.0-0.0-0.0-0.1-0.210","null","","null","","","","","","","","","","","","","key","null","NaN","720","446","j","false","3_Stimuli/C_ambi40.png","自我","Image","Word","1000","1150","朋友","Mismatch","Formal",""
"","","","","","psychophysics","273","902469","0.0-9.0-0.0-0.0-0.1-0.211","null","","null","","","","","","","","","","","","","key","null","NaN","720","446","f","false","3_Stimuli/C_ambi40.png","朋友","Image","Word","1000","1150","朋友","Match","Formal",""
"","","","","","psychophysics","274","905469","0.0-9.0-0.0-0.0-0.1-0.212","null","","null","","","","","","","","","","","","","key","null","NaN","720","446","f","false","3_Stimuli/S_ambi40.png","自我","Word","Image","1150","1000","自我","Match","Formal",""
"","","","","","psychophysics","275","908465","0.0-9.0-0.0-0.0-0.1-0.213","null","","null","","","","","","","","","","","","","key","null","NaN","720","446","j","false","3_Stimuli/C_ambi40.png","他人","Image","Word","1000","1150","朋友","Mismatch","Formal",""
"","","","","","psychophysics","276","911465","0.0-9.0-0.0-0.0-0.1-0.214","null","","null","","","","","","","","","","","","","key","null","NaN","720","446","j","false","3_Stimuli/C_ambi40.png","自我","Word","Image","1150","1000","朋友","Mismatch","Formal",""
"","","","","","psychophysics","277","914465","0.0-9.0-0.0-0.0-0.1-0.215","null","","null","","","","","","","","","","","","","key","null","NaN","720","446","f","false","3_Stimuli/T_ambi40.png","他人","Word","Image","1150","1000","他人","Match","Formal",""
"","","","","","psychophysics","278","917468","0.0-9.0-0.0-0.0-0.1-0.216","null","","null","","","","","","","","","","","","","key","null","NaN","720","446","f","false","3_Stimuli/C_ambi40.png","朋友","Image","Word","1000","1150","朋友","Match","Formal",""
"","","","","","psychophysics","279","920470","0.0-9.0-0.0-0.0-0.1-0.217","null","","null","","","","","","","","","","","","","key","null","NaN","720","446","f","false","3_Stimuli/C_ambi40.png","朋友","Image","Word","1000","1150","朋友","Match","Formal",""
"","","","","","psychophysics","280","923465","0.0-9.0-0.0-0.0-0.1-0.218","null","","null","","","","","","","","","","","","","key","null","NaN","720","446","j","false","3_Stimuli/C_ambi40.png","他人","Word","Image","1150","1000","朋友","Mismatch","Formal",""
"","","","","","psychophysics","281","926469","0.0-9.0-0.0-0.0-0.1-0.219","null","","null","","","","","","","","","","","","","key","null","NaN","720","446","f","false","3_Stimuli/T_ambi40.png","他人","Image","Word","1000","1150","他人","Match","Formal",""
"","","","","","psychophysics","282","929469","0.0-9.0-0.0-0.0-0.1-0.220","null","","null","","","","","","","","","","","","","key","null","NaN","720","446","j","false","3_Stimuli/C_ambi40.png","自我","Word","Image","1150","1000","朋友","Mismatch","Formal",""
"","","","","","psychophysics","283","932466","0.0-9.0-0.0-0.0-0.1-0.221","null","","null","","","","","","","","","","","","","key","null","NaN","720","446","j","false","3_Stimuli/T_ambi40.png","朋友","Word","Image","1150","1000","他人","Mismatch","Formal",""
"","","","","","psychophysics","284","935466","0.0-9.0-0.0-0.0-0.1-0.222","null","","null","","","","","","","","","","","","","key","null","NaN","720","446","f","false","3_Stimuli/S_ambi40.png","自我","Word","Image","1150","1000","自我","Match","Formal",""
"","","","","","psychophysics","285","938467","0.0-9.0-0.0-0.0-0.1-0.223","null","","null","","","","","","","","","","","","","key","null","NaN","720","446","j","false","3_Stimuli/C_ambi40.png","他人","Image","Word","1000","1150","朋友","Mismatch","Formal",""
"","","","","","psychophysics","286","941470","0.0-9.0-0.0-0.0-0.1-0.224","null","","null","","","","","","","","","","","","","key","null","NaN","720","446","j","false","3_Stimuli/C_ambi40.png","自我","Image","Word","1000","1150","朋友","Mismatch","Formal",""
"","","","","","psychophysics","287","944469","0.0-9.0-0.0-0.0-0.1-0.225","null","","null","","","","","","","","","","","","","key","null","NaN","720","446","j","false","3_Stimuli/S_ambi40.png","他人","Image","Word","1000","1150","自我","Mismatch","Formal",""
"","","","","","psychophysics","288","947468","0.0-9.0-0.0-0.0-0.1-0.226","null","","null","","","","","","","","","","","","","key","null","NaN","720","446","f","false","3_Stimuli/T_ambi40.png","他人","Word","Image","1150","1000","他人","Match","Formal",""
"","","","","","psychophysics","289","951499","0.0-9.0-0.0-0.0-0.1-0.227","null","","null","","","","","","","","","","","","","key","null","NaN","720","446","f","false","3_Stimuli/S_ambi40.png","自我","Word","Image","1150","1000","自我","Match","Formal",""
"","","","","","psychophysics","290","954177","0.0-9.0-0.0-0.0-0.1-0.228","null","","null","","","","","","","","","","","","","key","null","16.704427672956438","720","446","j","false","3_Stimuli/T_ambi40.png","朋友","Image","Word","1000","1150","他人","Mismatch","Formal",""
"","","","","","psychophysics","291","957469","0.0-9.0-0.0-0.0-0.1-0.229","null","","null","","","","","","","","","","","","","key","null","16.665999999999798","720","446","f","false","3_Stimuli/C_ambi40.png","朋友","Word","Image","1150","1000","朋友","Match","Formal",""
"","","","","","psychophysics","292","960466","0.0-9.0-0.0-0.0-0.1-0.230","null","","null","","","","","","","","","","","","","key","null","NaN","720","446","f","false","3_Stimuli/C_ambi40.png","朋友","Word","Image","1150","1000","朋友","Match","Formal",""
"","","","","","psychophysics","293","963466","0.0-9.0-0.0-0.0-0.1-0.231","null","","null","","","","","","","","","","","","","key","null","NaN","720","446","f","false","3_Stimuli/S_ambi40.png","自我","Image","Word","1000","1150","自我","Match","Formal",""
"","","","","","psychophysics","294","966469","0.0-9.0-0.0-0.0-0.1-0.232","null","","null","","","","","","","","","","","","","key","null","NaN","720","446","j","false","3_Stimuli/S_ambi40.png","他人","Word","Image","1150","1000","自我","Mismatch","Formal",""
"","","","","","psychophysics","295","969469","0.0-9.0-0.0-0.0-0.1-0.233","null","","null","","","","","","","","","","","","","key","null","NaN","720","446","j","false","3_Stimuli/T_ambi40.png","自我","Image","Word","1000","1150","他人","Mismatch","Formal",""
"","","","","","psychophysics","296","972469","0.0-9.0-0.0-0.0-0.1-0.234","null","","null","","","","","","","","","","","","","key","null","NaN","720","446","j","false","3_Stimuli/S_ambi40.png","朋友","Image","Word","1000","1150","自我","Mismatch","Formal",""
"","","","","","psychophysics","297","975469","0.0-9.0-0.0-0.0-0.1-0.235","null","","null","","","","","","","","","","","","","key","null","NaN","720","446","f","false","3_Stimuli/S_ambi40.png","自我","Image","Word","1000","1150","自我","Match","Formal",""
"","","","","","psychophysics","298","978135","0.0-9.0-0.0-0.0-0.1-0.236","null","","null","","","","","","","","","","","","","key","null","16.599600000004283","720","446","j","false","3_Stimuli/T_ambi40.png","自我","Word","Image","1150","1000","他人","Mismatch","Formal",""
"","","","","","psychophysics","299","980799","0.0-9.0-0.0-0.0-0.1-0.237","null","","null","","","","","","","","","","","","","key","null","16.666000000000018","720","446","j","false","3_Stimuli/S_ambi40.png","朋友","Word","Image","1150","1000","自我","Mismatch","Formal",""
"","","","","","psychophysics","300","983470","0.0-9.0-0.0-0.0-0.1-0.238","null","","null","","","","","","","","","","","","","key","null","16.666000000000018","720","446","f","false","3_Stimuli/T_ambi40.png","他人","Image","Word","1000","1150","他人","Match","Formal",""
"","","","","","psychophysics","301","986469","0.0-9.0-0.0-0.0-0.1-0.239","null","","null","","","","","","","","","","","","","key","null","18.5177777777814","720","446","f","false","3_Stimuli/T_ambi40.png","他人","Word","Image","1150","1000","他人","Match","Formal",""
"","","","","","html-keyboard-response","302","1017914","0.0-9.0-0.0-0.0-1.1","31443","<style>.context{color:white; font-size: 35px; line-height:40px}</style>                        <div><p class='context'>您正确回答了3% 的试次。</p><p class='context'>您的平均反应时为604毫秒。</p><p> <div style = 'color: green'><按任意键进入休息></div></p>","j","","","","","","","","","","","","","","","","","","","","","","","","","","","","",""
"","","","","","html-button-response","303","1019727","0.0-9.0-0.0-0.0-2.1","1810","
                  <p>您当前还剩余4组实验</p>
                  <p>现在是休息时间，当您结束休息后，您可以点击 结束休息 按钮 继续</p>
                  <p>建议休息时间还剩余<span id=""iii"">60</span>秒</p>","0","","","","","","","","","","","","","","","","","","","","","","","","","","","","",""
"","","","","","psychophysics","304","1022469","0.0-9.0-0.0-0.0-0.2-0.240","null","","null","","","","","","","","","","","","","key","null","16.66599999999947","720","446","j","false","3_Stimuli/S_ambi40.png","他人","Word","Image","1150","1000","自我","Mismatch","Formal",""
"","","","","","psychophysics","305","1025465","0.0-9.0-0.0-0.0-0.2-0.241","null","","null","","","","","","","","","","","","","key","null","NaN","720","446","j","false","3_Stimuli/S_ambi40.png","朋友","Word","Image","1150","1000","自我","Mismatch","Formal",""
"","","","","","psychophysics","306","1028465","0.0-9.0-0.0-0.0-0.2-0.242","null","","null","","","","","","","","","","","","","key","null","NaN","720","446","f","false","3_Stimuli/C_ambi40.png","朋友","Image","Word","1000","1150","朋友","Match","Formal",""
"","","","","","psychophysics","307","1031469","0.0-9.0-0.0-0.0-0.2-0.243","null","","null","","","","","","","","","","","","","key","null","NaN","720","446","f","false","3_Stimuli/T_ambi40.png","他人","Image","Word","1000","1150","他人","Match","Formal",""
"","","","","","psychophysics","308","1034469","0.0-9.0-0.0-0.0-0.2-0.244","null","","null","","","","","","","","","","","","","key","null","NaN","720","446","f","false","3_Stimuli/S_ambi40.png","自我","Word","Image","1150","1000","自我","Match","Formal",""
"","","","","","psychophysics","309","1037469","0.0-9.0-0.0-0.0-0.2-0.245","null","","null","","","","","","","","","","","","","key","null","NaN","720","446","j","false","3_Stimuli/C_ambi40.png","他人","Word","Image","1150","1000","朋友","Mismatch","Formal",""
"","","","","","psychophysics","310","1040469","0.0-9.0-0.0-0.0-0.2-0.246","null","","null","","","","","","","","","","","","","key","null","NaN","720","446","f","false","3_Stimuli/C_ambi40.png","朋友","Image","Word","1000","1150","朋友","Match","Formal",""
"","","","","","psychophysics","311","1043469","0.0-9.0-0.0-0.0-0.2-0.247","null","","null","","","","","","","","","","","","","key","null","NaN","720","446","f","false","3_Stimuli/S_ambi40.png","自我","Image","Word","1000","1150","自我","Match","Formal",""
"","","","","","psychophysics","312","1046469","0.0-9.0-0.0-0.0-0.2-0.248","null","","null","","","","","","","","","","","","","key","null","NaN","720","446","j","false","3_Stimuli/T_ambi40.png","自我","Word","Image","1150","1000","他人","Mismatch","Formal",""
"","","","","","psychophysics","313","1049469","0.0-9.0-0.0-0.0-0.2-0.249","null","","null","","","","","","","","","","","","","key","null","NaN","720","446","f","false","3_Stimuli/C_ambi40.png","朋友","Word","Image","1150","1000","朋友","Match","Formal",""
"","","","","","psychophysics","314","1052469","0.0-9.0-0.0-0.0-0.2-0.250","null","","null","","","","","","","","","","","","","key","null","NaN","720","446","f","false","3_Stimuli/T_ambi40.png","他人","Word","Image","1150","1000","他人","Match","Formal",""
"","","","","","psychophysics","315","1055469","0.0-9.0-0.0-0.0-0.2-0.251","null","","null","","","","","","","","","","","","","key","null","NaN","720","446","f","false","3_Stimuli/C_ambi40.png","朋友","Word","Image","1150","1000","朋友","Match","Formal",""
"","","","","","psychophysics","316","1058465","0.0-9.0-0.0-0.0-0.2-0.252","null","","null","","","","","","","","","","","","","key","null","NaN","720","446","f","false","3_Stimuli/T_ambi40.png","他人","Image","Word","1000","1150","他人","Match","Formal",""
"","","","","","psychophysics","317","1061466","0.0-9.0-0.0-0.0-0.2-0.253","null","","null","","","","","","","","","","","","","key","null","NaN","720","446","j","false","3_Stimuli/C_ambi40.png","自我","Image","Word","1000","1150","朋友","Mismatch","Formal",""
"","","","","","psychophysics","318","1064469","0.0-9.0-0.0-0.0-0.2-0.254","null","","null","","","","","","","","","","","","","key","null","NaN","720","446","j","false","3_Stimuli/S_ambi40.png","他人","Image","Word","1000","1150","自我","Mismatch","Formal",""
"","","","","","psychophysics","319","1067466","0.0-9.0-0.0-0.0-0.2-0.255","null","","null","","","","","","","","","","","","","key","null","NaN","720","446","j","false","3_Stimuli/T_ambi40.png","朋友","Image","Word","1000","1150","他人","Mismatch","Formal",""
"","","","","","psychophysics","320","1070468","0.0-9.0-0.0-0.0-0.2-0.256","null","","null","","","","","","","","","","","","","key","null","NaN","720","446","f","false","3_Stimuli/T_ambi40.png","他人","Word","Image","1150","1000","他人","Match","Formal",""
"","","","","","psychophysics","321","1073469","0.0-9.0-0.0-0.0-0.2-0.257","null","","null","","","","","","","","","","","","","key","null","NaN","720","446","j","false","3_Stimuli/S_ambi40.png","朋友","Image","Word","1000","1150","自我","Mismatch","Formal",""
"","","","","","psychophysics","322","1076138","0.0-9.0-0.0-0.0-0.2-0.258","null","","null","","","","","","","","","","","","","key","null","16.637777777776744","720","446","f","false","3_Stimuli/S_ambi40.png","自我","Word","Image","1150","1000","自我","Match","Formal",""
"","","","","","psychophysics","323","1079466","0.0-9.0-0.0-0.0-0.2-0.259","null","","null","","","","","","","","","","","","","key","null","16.6659999999952","720","446","j","false","3_Stimuli/C_ambi40.png","他人","Image","Word","1000","1150","朋友","Mismatch","Formal",""
"","","","","","psychophysics","324","1082469","0.0-9.0-0.0-0.0-0.2-0.260","null","","null","","","","","","","","","","","","","key","null","NaN","720","446","j","false","3_Stimuli/C_ambi40.png","自我","Word","Image","1150","1000","朋友","Mismatch","Formal",""
"","","","","","psychophysics","325","1085468","0.0-9.0-0.0-0.0-0.2-0.261","null","","null","","","","","","","","","","","","","key","null","NaN","720","446","f","false","3_Stimuli/S_ambi40.png","自我","Image","Word","1000","1150","自我","Match","Formal",""
"","","","","","psychophysics","326","1088465","0.0-9.0-0.0-0.0-0.2-0.262","null","","null","","","","","","","","","","","","","key","null","NaN","720","446","j","false","3_Stimuli/T_ambi40.png","朋友","Word","Image","1150","1000","他人","Mismatch","Formal",""
"","","","","","psychophysics","327","1091469","0.0-9.0-0.0-0.0-0.2-0.263","null","","null","","","","","","","","","","","","","key","null","NaN","720","446","j","false","3_Stimuli/T_ambi40.png","自我","Image","Word","1000","1150","他人","Mismatch","Formal",""
"","","","","","psychophysics","328","1094468","0.0-9.0-0.0-0.0-0.2-0.264","null","","null","","","","","","","","","","","","","key","null","NaN","720","446","f","false","3_Stimuli/T_ambi40.png","他人","Image","Word","1000","1150","他人","Match","Formal",""
"","","","","","psychophysics","329","1097466","0.0-9.0-0.0-0.0-0.2-0.265","null","","null","","","","","","","","","","","","","key","null","NaN","720","446","f","false","3_Stimuli/C_ambi40.png","朋友","Word","Image","1150","1000","朋友","Match","Formal",""
"","","","","","psychophysics","330","1100466","0.0-9.0-0.0-0.0-0.2-0.266","null","","null","","","","","","","","","","","","","key","null","NaN","720","446","j","false","3_Stimuli/T_ambi40.png","自我","Image","Word","1000","1150","他人","Mismatch","Formal",""
"","","","","","psychophysics","331","1103465","0.0-9.0-0.0-0.0-0.2-0.267","null","","null","","","","","","","","","","","","","key","null","NaN","720","446","j","false","3_Stimuli/C_ambi40.png","他人","Word","Image","1150","1000","朋友","Mismatch","Formal",""
"","","","","","psychophysics","332","1106469","0.0-9.0-0.0-0.0-0.2-0.268","null","","null","","","","","","","","","","","","","key","null","NaN","720","446","j","false","3_Stimuli/S_ambi40.png","朋友","Word","Image","1150","1000","自我","Mismatch","Formal",""
"","","","","","psychophysics","333","1109468","0.0-9.0-0.0-0.0-0.2-0.269","null","","null","","","","","","","","","","","","","key","null","NaN","720","446","f","false","3_Stimuli/C_ambi40.png","朋友","Word","Image","1150","1000","朋友","Match","Formal",""
"","","","","","psychophysics","334","1112465","0.0-9.0-0.0-0.0-0.2-0.270","null","","null","","","","","","","","","","","","","key","null","NaN","720","446","j","false","3_Stimuli/T_ambi40.png","自我","Word","Image","1150","1000","他人","Mismatch","Formal",""
"","","","","","psychophysics","335","1115468","0.0-9.0-0.0-0.0-0.2-0.271","null","","null","","","","","","","","","","","","","key","null","NaN","720","446","f","false","3_Stimuli/T_ambi40.png","他人","Word","Image","1150","1000","他人","Match","Formal",""
"","","","","","psychophysics","336","1118469","0.0-9.0-0.0-0.0-0.2-0.272","null","","null","","","","","","","","","","","","","key","null","NaN","720","446","j","false","3_Stimuli/C_ambi40.png","他人","Image","Word","1000","1150","朋友","Mismatch","Formal",""
"","","","","","psychophysics","337","1121465","0.0-9.0-0.0-0.0-0.2-0.273","null","","null","","","","","","","","","","","","","key","null","NaN","720","446","f","false","3_Stimuli/S_ambi40.png","自我","Image","Word","1000","1150","自我","Match","Formal",""
"","","","","","psychophysics","338","1124468","0.0-9.0-0.0-0.0-0.2-0.274","null","","null","","","","","","","","","","","","","key","null","NaN","720","446","j","false","3_Stimuli/S_ambi40.png","朋友","Image","Word","1000","1150","自我","Mismatch","Formal",""
"","","","","","psychophysics","339","1127466","0.0-9.0-0.0-0.0-0.2-0.275","null","","null","","","","","","","","","","","","","key","null","NaN","720","446","f","false","3_Stimuli/S_ambi40.png","自我","Word","Image","1150","1000","自我","Match","Formal",""
"","","","","","psychophysics","340","1130465","0.0-9.0-0.0-0.0-0.2-0.276","null","","null","","","","","","","","","","","","","key","null","NaN","720","446","f","false","3_Stimuli/S_ambi40.png","自我","Image","Word","1000","1150","自我","Match","Formal",""
"","","","","","psychophysics","341","1133469","0.0-9.0-0.0-0.0-0.2-0.277","null","","null","","","","","","","","","","","","","key","null","NaN","720","446","j","false","3_Stimuli/S_ambi40.png","他人","Image","Word","1000","1150","自我","Mismatch","Formal",""
"","","","","","psychophysics","342","1136468","0.0-9.0-0.0-0.0-0.2-0.278","null","","null","","","","","","","","","","","","","key","null","NaN","720","446","j","false","3_Stimuli/T_ambi40.png","朋友","Image","Word","1000","1150","他人","Mismatch","Formal",""
"","","","","","psychophysics","343","1189467","0.0-9.0-0.0-0.0-0.2-0.279","null","","null","","","","","","","","","","","","","key","null","NaN","720","446","f","false","3_Stimuli/T_ambi40.png","他人","Word","Image","1150","1000","他人","Match","Formal",""
"","","","","","psychophysics","344","1192125","0.0-9.0-0.0-0.0-0.2-0.280","null","","null","","","","","","","","","","","","","key","null","16.644427083333238","720","446","j","false","3_Stimuli/S_ambi40.png","他人","Word","Image","1150","1000","自我","Mismatch","Formal",""
"","","","","","psychophysics","345","1195468","0.0-9.0-0.0-0.0-0.2-0.281","null","","null","","","","","","","","","","","","","key","null","16.665999999998377","720","446","j","false","3_Stimuli/C_ambi40.png","自我","Image","Word","1000","1150","朋友","Mismatch","Formal",""
"","","","","","psychophysics","346","1198136","0.0-9.0-0.0-0.0-0.2-0.282","null","","null","","","","","","","","","","","","","key","null","16.66599999999959","720","446","f","false","3_Stimuli/S_ambi40.png","自我","Word","Image","1150","1000","自我","Match","Formal",""
"","","","","","psychophysics","347","1199920","0.0-9.0-0.0-0.0-0.2-0.283","630","","j","","","","","","","","","","","","","key","j","16.66599999999938","720","446","j","true","3_Stimuli/T_ambi40.png","朋友","Word","Image","1150","1000","他人","Mismatch","Formal",""
"","","","","","psychophysics","348","1201887","0.0-9.0-0.0-0.0-0.2-0.284","815","","j","","","","","","","","","","","","","key","j","16.72769827586157","720","446","f","false","3_Stimuli/C_ambi40.png","朋友","Image","Word","1000","1150","朋友","Match","Formal",""
"","","","","","psychophysics","349","1203769","0.0-9.0-0.0-0.0-0.2-0.285","726","","j","","","","","","","","","","","","","key","j","16.665999999999517","720","446","f","false","3_Stimuli/T_ambi40.png","他人","Image","Word","1000","1150","他人","Match","Formal",""
"","","","","","psychophysics","350","1205686","0.0-9.0-0.0-0.0-0.2-0.286","764","","j","","","","","","","","","","","","","key","j","16.66599999999924","720","446","f","false","3_Stimuli/C_ambi40.png","朋友","Image","Word","1000","1150","朋友","Match","Formal",""
"","","","","","psychophysics","351","1207633","0.0-9.0-0.0-0.0-0.2-0.287","796","","j","","","","","","","","","","","","","key","j","16.666000000000448","720","446","j","true","3_Stimuli/C_ambi40.png","自我","Word","Image","1150","1000","朋友","Mismatch","Formal",""
"","","","","","psychophysics","352","1209405","0.0-9.0-0.0-0.0-0.2-0.288","618","","j","","","","","","","","","","","","","key","j","16.665999999999677","720","446","j","true","3_Stimuli/T_ambi40.png","自我","Word","Image","1150","1000","他人","Mismatch","Formal",""
"","","","","","psychophysics","353","1212466","0.0-9.0-0.0-0.0-0.2-0.289","null","","null","","","","","","","","","","","","","key","null","16.66599999999699","720","446","j","false","3_Stimuli/C_ambi40.png","他人","Image","Word","1000","1150","朋友","Mismatch","Formal",""
"","","","","","psychophysics","354","1215464","0.0-9.0-0.0-0.0-0.2-0.290","null","","null","","","","","","","","","","","","","key","null","NaN","720","446","j","false","3_Stimuli/T_ambi40.png","朋友","Word","Image","1150","1000","他人","Mismatch","Formal",""
"","","","","","psychophysics","355","1218464","0.0-9.0-0.0-0.0-0.2-0.291","null","","null","","","","","","","","","","","","","key","null","NaN","720","446","f","false","3_Stimuli/S_ambi40.png","自我","Image","Word","1000","1150","自我","Match","Formal",""
"","","","","","psychophysics","356","1221469","0.0-9.0-0.0-0.0-0.2-0.292","null","","null","","","","","","","","","","","","","key","null","NaN","720","446","f","false","3_Stimuli/T_ambi40.png","他人","Word","Image","1150","1000","他人","Match","Formal",""
"","","","","","psychophysics","357","1224468","0.0-9.0-0.0-0.0-0.2-0.293","null","","null","","","","","","","","","","","","","key","null","NaN","720","446","f","false","3_Stimuli/T_ambi40.png","他人","Image","Word","1000","1150","他人","Match","Formal",""
"","","","","","psychophysics","358","1227465","0.0-9.0-0.0-0.0-0.2-0.294","null","","null","","","","","","","","","","","","","key","null","NaN","720","446","f","false","3_Stimuli/C_ambi40.png","朋友","Image","Word","1000","1150","朋友","Match","Formal",""
"","","","","","psychophysics","359","1230466","0.0-9.0-0.0-0.0-0.2-0.295","null","","null","","","","","","","","","","","","","key","null","NaN","720","446","j","false","3_Stimuli/S_ambi40.png","他人","Word","Image","1150","1000","自我","Mismatch","Formal",""
"","","","","","psychophysics","360","1233465","0.0-9.0-0.0-0.0-0.2-0.296","null","","null","","","","","","","","","","","","","key","null","NaN","720","446","j","false","3_Stimuli/S_ambi40.png","朋友","Word","Image","1150","1000","自我","Mismatch","Formal",""
"","","","","","psychophysics","361","1236469","0.0-9.0-0.0-0.0-0.2-0.297","null","","null","","","","","","","","","","","","","key","null","NaN","720","446","j","false","3_Stimuli/S_ambi40.png","他人","Image","Word","1000","1150","自我","Mismatch","Formal",""
"","","","","","psychophysics","362","1239465","0.0-9.0-0.0-0.0-0.2-0.298","null","","null","","","","","","","","","","","","","key","null","NaN","720","446","j","false","3_Stimuli/C_ambi40.png","他人","Word","Image","1150","1000","朋友","Mismatch","Formal",""
"","","","","","psychophysics","363","1242469","0.0-9.0-0.0-0.0-0.2-0.299","null","","null","","","","","","","","","","","","","key","null","NaN","720","446","j","false","3_Stimuli/T_ambi40.png","朋友","Image","Word","1000","1150","他人","Mismatch","Formal",""
"","","","","","psychophysics","364","1245470","0.0-9.0-0.0-0.0-0.2-0.300","null","","null","","","","","","","","","","","","","key","null","NaN","720","446","f","false","3_Stimuli/S_ambi40.png","自我","Word","Image","1150","1000","自我","Match","Formal",""
"","","","","","psychophysics","365","1248466","0.0-9.0-0.0-0.0-0.2-0.301","null","","null","","","","","","","","","","","","","key","null","NaN","720","446","j","false","3_Stimuli/C_ambi40.png","自我","Word","Image","1150","1000","朋友","Mismatch","Formal",""
"","","","","","psychophysics","366","1251469","0.0-9.0-0.0-0.0-0.2-0.302","null","","null","","","","","","","","","","","","","key","null","NaN","720","446","f","false","3_Stimuli/T_ambi40.png","他人","Word","Image","1150","1000","他人","Match","Formal",""
"","","","","","psychophysics","367","1254466","0.0-9.0-0.0-0.0-0.2-0.303","null","","null","","","","","","","","","","","","","key","null","NaN","720","446","f","false","3_Stimuli/T_ambi40.png","他人","Image","Word","1000","1150","他人","Match","Formal",""
"","","","","","psychophysics","368","1257468","0.0-9.0-0.0-0.0-0.2-0.304","null","","null","","","","","","","","","","","","","key","null","NaN","720","446","f","false","3_Stimuli/C_ambi40.png","朋友","Word","Image","1150","1000","朋友","Match","Formal",""
"","","","","","psychophysics","369","1260468","0.0-9.0-0.0-0.0-0.2-0.305","null","","null","","","","","","","","","","","","","key","null","NaN","720","446","f","false","3_Stimuli/C_ambi40.png","朋友","Image","Word","1000","1150","朋友","Match","Formal",""
"","","","","","psychophysics","370","1263468","0.0-9.0-0.0-0.0-0.2-0.306","null","","null","","","","","","","","","","","","","key","null","NaN","720","446","j","false","3_Stimuli/S_ambi40.png","朋友","Image","Word","1000","1150","自我","Mismatch","Formal",""
"","","","","","psychophysics","371","1266470","0.0-9.0-0.0-0.0-0.2-0.307","null","","null","","","","","","","","","","","","","key","null","NaN","720","446","j","false","3_Stimuli/T_ambi40.png","自我","Image","Word","1000","1150","他人","Mismatch","Formal",""
"","","","","","psychophysics","372","1269469","0.0-9.0-0.0-0.0-0.2-0.308","null","","null","","","","","","","","","","","","","key","null","NaN","720","446","j","false","3_Stimuli/C_ambi40.png","自我","Image","Word","1000","1150","朋友","Mismatch","Formal",""
"","","","","","psychophysics","373","1283187","0.0-9.0-0.0-0.0-0.2-0.309","null","","null","","","","","","","","","","","","","key","null","NaN","720","446","f","false","3_Stimuli/S_ambi40.png","自我","Word","Image","1150","1000","自我","Match","Formal",""
"","","","","","psychophysics","374","1286467","0.0-9.0-0.0-0.0-0.2-0.310","null","","null","","","","","","","","","","","","","key","null","16.595660714287078","720","446","f","false","3_Stimuli/S_ambi40.png","自我","Image","Word","1000","1150","自我","Match","Formal",""
"","","","","","psychophysics","375","1289469","0.0-9.0-0.0-0.0-0.2-0.311","null","","null","","","","","","","","","","","","","key","null","NaN","720","446","f","false","3_Stimuli/C_ambi40.png","朋友","Word","Image","1150","1000","朋友","Match","Formal",""
"","","","","","psychophysics","376","1292467","0.0-9.0-0.0-0.0-0.2-0.312","null","","null","","","","","","","","","","","","","key","null","NaN","720","446","j","false","3_Stimuli/T_ambi40.png","朋友","Word","Image","1150","1000","他人","Mismatch","Formal",""
"","","","","","psychophysics","377","1295469","0.0-9.0-0.0-0.0-0.2-0.313","null","","null","","","","","","","","","","","","","key","null","NaN","720","446","f","false","3_Stimuli/T_ambi40.png","他人","Image","Word","1000","1150","他人","Match","Formal",""
"","","","","","psychophysics","378","1298467","0.0-9.0-0.0-0.0-0.2-0.314","null","","null","","","","","","","","","","","","","key","null","NaN","720","446","f","false","3_Stimuli/C_ambi40.png","朋友","Word","Image","1150","1000","朋友","Match","Formal",""
"","","","","","psychophysics","379","1301469","0.0-9.0-0.0-0.0-0.2-0.315","null","","null","","","","","","","","","","","","","key","null","NaN","720","446","f","false","3_Stimuli/S_ambi40.png","自我","Image","Word","1000","1150","自我","Match","Formal",""
"","","","","","psychophysics","380","1304469","0.0-9.0-0.0-0.0-0.2-0.316","null","","null","","","","","","","","","","","","","key","null","NaN","720","446","f","false","3_Stimuli/T_ambi40.png","他人","Image","Word","1000","1150","他人","Match","Formal",""
"","","","","","psychophysics","381","1307470","0.0-9.0-0.0-0.0-0.2-0.317","null","","null","","","","","","","","","","","","","key","null","NaN","720","446","f","false","3_Stimuli/S_ambi40.png","自我","Word","Image","1150","1000","自我","Match","Formal",""
"","","","","","psychophysics","382","1310469","0.0-9.0-0.0-0.0-0.2-0.318","null","","null","","","","","","","","","","","","","key","null","NaN","720","446","j","false","3_Stimuli/T_ambi40.png","自我","Image","Word","1000","1150","他人","Mismatch","Formal",""
"","","","","","psychophysics","383","1313470","0.0-9.0-0.0-0.0-0.2-0.319","null","","null","","","","","","","","","","","","","key","null","NaN","720","446","j","false","3_Stimuli/S_ambi40.png","朋友","Word","Image","1150","1000","自我","Mismatch","Formal",""
